timestamp_ms,acc_x,acc_y,acc_z,gyro_x,gyro_y,gyro_z
1781765695376,1.4658,-0.1801,-0.4752,0.2627,-0.1021,-0.406
1781765695393,0.646,-0.3266,-1.3121,0.1082,-0.4361,-0.3785
1781765695414,0.2331,-0.0701,-0.956,0.0094,-0.638,-0.3661
1781765695434,0.1001,0.0439,0.2039,0.1114,-0.6856,-0.4045
1781765695455,0.1097,0.0246,1.1118,0.3378,-0.444,-0.4508
1781765695475,-0.1656,-0.1145,0.6705,0.405,-0.3369,-0.4834
1781765695494,-0.4316,-0.1141,-0.0804,0.2852,-0.3583,-0.5047
1781765695514,-0.4766,-0.1275,-0.4922,0.0512,-0.4037,-0.4896
1781765695533,-0.5159,-0.1427,-0.313,-0.1086,-0.4367,-0.4739
1781765695554,-0.6851,-0.3194,-0.0131,-0.1256,-0.4424,-0.4106
1781765695575,-0.903,-0.3415,0.0622,-0.0405,-0.401,-0.3159
1781765695594,-0.7814,-0.2218,-0.1872,-0.0095,-0.3646,-0.2765
1781765695614,-0.6178,-0.0641,-0.6279,-0.0994,-0.3296,-0.285
1781765695634,-0.8252,0.0298,-0.7311,-0.1759,-0.4397,-0.2789
1781765695654,-0.9676,0.154,-0.1127,-0.0674,-0.5327,-0.2757
1781765695675,-0.9506,-0.0866,0.0816,0.0806,-0.4941,-0.2661
1781765695694,-1.4974,-0.7159,-0.4776,0.0498,-0.5266,-0.1153
1781765695714,-1.2174,-0.1767,-0.9346,-0.0759,-0.4333,-0.0531
1781765695734,-1.0943,-0.1465,-1.0582,-0.2344,-0.442,-0.0641
1781765695754,-1.0688,-0.2592,-0.6297,-0.1886,-0.5283,-0.132
1781765695774,-1.6205,-0.7928,-0.4347,-0.0549,-0.7169,-0.0502
1781765695794,-1.8388,-1.2845,-0.616,0.0958,-1.0597,0.1122
1781765695814,-2.3471,-1.5204,-0.5252,0.336,-1.4419,0.2526
1781765695834,-2.5304,-1.8882,-0.2517,0.6472,-1.7646,0.371
1781765695854,-1.4591,-2.3265,-0.6604,0.8155,-1.8941,0.3096
1781765695875,-1.4591,-2.3265,-0.6604,0.8155,-1.8941,0.3096
1781765695894,-0.6866,-3.3726,-3.4439,0.1242,-1.6715,0.0872
1781765695914,-1.1936,-3.7938,-4.0439,-0.3892,-0.8385,0.1115
1781765695933,-1.7754,-4.6414,-4.7726,-0.8855,0.0234,0.5338
1781765695954,-1.2037,-5.656,-5.6535,-1.4361,-0.2404,1.1132
1781765695976,-1.2037,-5.656,-5.6535,-1.4361,-0.2404,1.1132
1781765695994,-3.9455,-6.6579,-6.5235,-1.529,-3.6579,2.9011
1781765696014,-4.4923,-5.9237,-5.3287,-0.8569,-4.8975,3.7283
1781765696034,-2.4737,-7.0101,-3.9967,0.2572,-6.2103,4.2938
1781765696054,-0.183,-8.2365,-2.0263,1.5001,-7.2748,4.6396
1781765696075,-0.183,-8.2365,-2.0263,1.5001,-7.2748,4.6396
1781765696094,-0.42,-7.5501,-0.643,1.996,-7.1682,5.3945
1781765696114,5.7958,-6.0461,2.0691,1.6769,-3.4077,5.7342
1781765696134,8.8869,-4.2435,2.1632,1.3794,-1.8115,5.4425
1781765696154,8.8869,-4.2435,2.1632,1.3612,-0.9393,4.5586
1781765696176,12.7701,-1.9212,2.6302,1.3612,-0.9393,4.5586
1781765696194,14.3982,0.2473,2.1539,1.4323,-0.7914,3.4023
1781765696214,13.9294,1.6331,1.1029,1.2905,-0.688,2.5535
1781765696234,13.0986,1.7318,0.2958,1.5975,-2.7714,1.1192
1781765696254,13.3319,4.7619,-2.6638,1.5975,-2.7714,1.1192
1781765696274,8.1524,1.2856,0.3762,1.8839,-2.4174,1.1476
1781765696293,6.7193,2.6361,0.6842,1.6674,-1.9198,0.9678
1781765696314,7.3731,4.5014,-5.3979,0.4056,-0.9523,0.3015
1781765696334,3.4329,3.0201,-4.2683,-0.581,1.3834,-0.1492
1781765696354,1.206,1.1345,-1.005,-1.039,2.8056,-0.1767
1781765696374,-0.1658,0.4874,2.0371,-0.6811,3.5961,0.2124
1781765696394,-0.1592,1.2982,0.6742,-0.2448,3.5416,0.4008
1781765696414,-0.4836,1.3141,0.2266,0.3723,2.3836,0.5045
1781765696434,-1.734,2.1266,-2.4054,0.482,0.994,0.5603
1781765696454,-1.5594,0.9863,-1.733,0.5339,0.2452,0.712
1781765696474,-1.9541,0.3376,-0.3547,0.6105,-0.1129,0.9235
1781765696494,-1.5586,0.6524,0.6277,0.6276,-0.1464,1.0382
1781765696514,-1.3408,1.3666,0.8738,0.5822,0.0917,1.0705
1781765696534,-0.6395,2.076,-1.0491,0.2457,0.4598,0.9721
1781765696554,-0.4292,2.2245,-0.8699,0.0095,0.7016,0.8396
1781765696574,-1.5349,-0.2114,-0.1036,-0.1361,0.6406,1.1102
1781765696594,-2.0608,-1.9947,-0.0786,-0.4233,0.0025,1.5412
1781765696614,-2.0824,-0.0624,0.1906,-0.4357,-0.6356,1.9767
1781765696635,-1.2015,2.0546,0.137,-0.1919,-1.3296,2.2974
1781765696654,1.0447,0.7411,0.4852,-0.0178,-1.7591,1.9994
1781765696674,1.1277,1.67,-0.3455,-0.1377,-1.6302,1.6556
1781765696694,-0.474,0.6027,-0.9819,-0.4716,-1.6474,1.4522
1781765696714,-1.0267,0.4939,-0.432,-0.8363,-2.0732,1.235
1781765696734,0.0485,0.7651,0.0987,-1.2111,-2.4791,1.031
1781765696754,-2.2025,1.5893,-1.1126,-1.9968,-2.3047,1.4298
1781765696774,-2.1019,2.4431,-0.3262,-2.2263,-1.2342,1.4448
1781765696794,1.8634,1.2376,1.5262,-1.7242,-0.6665,0.7964
1781765696814,4.5549,-0.8115,1.6738,-1.3579,-0.0903,-0.1996
1781765696834,2.3467,-3.4225,-0.2535,-1.7838,0.2456,-0.6008
1781765696854,0.9713,-2.0675,0.1771,-1.8454,1.1474,-0.3149
1781765696874,-0.246,-1.8395,-0.4545,-1.382,1.6688,0.2223
1781765696894,-0.3249,-2.2678,-0.716,-0.5291,0.963,0.3189
1781765696914,-1.0182,-3.0735,0.1275,0.1211,0.228,0.9152
1781765696934,-3.0285,-4.2527,0.8063,0.2293,0.3064,2.2008
1781765696954,-5.6806,-5.7431,1.1742,0.0166,0.9257,4.0679
1781765696975,-1.3949,-2.3317,1.6794,0.1625,1.4067,4.6959
1781765696994,2.6052,3.0794,1.0011,0.36,1.6067,4.1285
1781765697014,6.0775,6.5166,-0.3576,0.5569,1.2275,3.0252
1781765697034,5.3092,6.286,-1.4017,0.6236,0.5616,2.0886
1781765697054,4.3032,3.3735,-1.0831,0.3648,0.3473,1.6177
1781765697074,1.6751,1.9451,-0.2985,-0.2359,0.7466,1.7282
1781765697094,1.3806,4.3053,-0.1327,-0.686,0.7775,1.6838
1781765697114,2.0196,9.4016,2.5577,-1.0094,0.7097,1.0143
1781765697134,4.9831,6.5177,-2.4179,-2.0044,0.2947,-0.8109
1781765697154,1.636,-1.1726,1.0966,-1.9241,0.1148,-1.7172
1781765697174,-6.216,-9.71,1.8312,-1.3016,-0.1045,-0.7394
1781765697194,-3.6537,-10.6758,2.3909,-0.0084,-0.0346,0.4418
1781765697214,0.617,-6.4815,-1.2124,0.4526,0.2799,0.819
1781765697234,0.6891,0.7366,-3.1951,0.2216,0.6372,0.6199
1781765697254,1.247,-1.4502,-0.9862,0.0908,1.3593,0.4186
1781765697274,0.6561,-3.1663,0.5875,0.2347,0.6057,-0.0683
1781765697294,-0.4405,-0.7256,1.34,-0.1121,0.0602,-0.1944
1781765697314,-1.2583,0.4165,1.2195,-0.5752,-0.4424,0.0555
1781765697334,-1.0411,1.352,1.2112,-0.7729,-0.7943,0.3209
1781765697354,-0.5618,1.3806,0.8934,-0.5463,-0.637,0.5835
1781765697374,0.4393,0.7854,0.9628,0.0299,-0.117,0.6577
1781765697394,1.2592,0.2031,0.2984,0.2696,0.2422,0.7697
1781765697414,0.82,-0.2523,0.7401,0.0567,0.1029,0.8726
1781765697434,-0.6463,-0.1939,-0.0916,-0.2237,-0.2948,1.0176
1781765697456,-0.8458,0.0659,0.1271,-0.2083,-0.628,1.2458
1781765697476,-0.3114,-0.27,0.3097,-0.1225,-0.6419,1.3432
1781765697494,-0.2337,-0.4143,0.0892,-0.1002,-0.3925,1.3539
1781765697514,0.1276,-0.4028,-0.0868,-0.1361,-0.3227,1.1352
1781765697534,0.3847,-0.5687,0.0323,-0.1828,-0.2323,0.7756
1781765697554,0.3547,-0.5635,0.2856,-0.2151,-0.0245,0.19
1781765697574,0.1103,0.1551,0.4561,-0.2156,0.1108,-0.2866
1781765697594,-0.8885,3.0332,-0.3616,-0.7038,-0.2278,-0.198
1781765697613,-0.905,4.7354,0.83,-0.5023,-0.0055,-0.1826
1781765697634,-0.8939,5.2919,0.9532,-0.0167,0.1005,0.0945
1781765697654,-0.7513,4.0035,0.1616,0.1364,0.152,0.4773
1781765697673,-0.6573,1.7037,1.635,1.474,1.0789,1.011
1781765697694,-1.8748,12.4102,1.3838,1.7728,1.1812,0.9471
1781765697714,0.1751,2.7731,-1.2774,0.703,-0.1218,0.1978
1781765697734,-2.8576,-4.7043,-4.2043,-0.7396,-0.3048,-0.025
1781765697754,1.1608,-23.8915,-2.4113,-2.5131,-0.3268,0.8187
1781765697775,1.2857,-4.5228,5.5516,-1.4413,0.0511,0.5365
1781765697794,0.9595,-3.0608,5.9447,-0.0155,0.0231,0.0979
1781765697814,-0.6046,-0.5254,-0.7005,0.7897,-0.203,-0.0056
1781765697834,-0.6439,0.5028,-1.623,0.9439,-0.0988,0.1612
1781765697854,-0.4482,-0.7174,-0.8575,0.6933,-0.2249,0.1776
1781765697874,-0.5234,-0.5927,-0.2242,0.3008,-0.0655,0.3011
1781765697894,-0.1582,0.4656,0.4064,0.0567,-0.1167,0.401
1781765697914,0.2439,0.3665,1.0869,0.0856,-0.386,0.5252
1781765697935,-0.1198,0.2231,1.4301,0.2712,-0.3314,0.6927
1781765697954,-0.2876,0.0873,0.8146,0.4,-0.2868,0.9023
1781765697974,-0.0597,0.3841,0.0965,0.3292,-0.161,1.0285
1781765697994,0.3306,0.6265,-0.7916,0.104,-0.3255,1.1827
1781765698014,0.6258,0.0785,-0.9064,-0.1207,-0.1434,1.3325
1781765698033,0.8004,-0.7501,-0.5764,-0.2468,-0.1675,1.6182
1781765698054,-0.961,-1.5738,-0.0814,-0.2065,-0.4303,0.7102
1781765698074,-1.29,0.1068,-0.5196,-0.0876,0.2197,0.6544
1781765698094,0.7744,-0.1239,-1.053,-0.369,0.0038,0.9719
1781765698114,0.9728,-0.866,0.5926,-0.3472,0.0593,0.7269
1781765698134,0.2771,-1.6277,1.0231,-0.1,0.1164,-0.011
1781765698154,0.128,-1.5102,0.2812,0.1615,0.2008,-0.1417
1781765698174,1.0573,1.3124,-0.4219,0.0987,0.2618,-0.083
1781765698195,1.0573,1.3124,-0.4219,0.0987,0.2618,-0.083
1781765698214,0.1106,0.9567,0.5725,0.1889,0.1138,-0.0506
1781765698234,-0.1571,0.7875,0.8427,0.2125,-0.0652,0.0892
1781765698254,0.2458,0.9811,0.1472,0.013,0.0128,0.7052
1781765698274,0.668,1.215,1.3068,-0.0432,-0.1746,1.048
1781765698294,0.2639,-0.573,0.3577,0.0455,-0.0107,0.9122
1781765698314,0.5893,-0.671,-0.0999,0.0308,0.0738,0.9255
1781765698334,0.6884,-0.9,0.0758,-0.0522,0.1127,0.814
1781765698354,0.2999,-0.6806,0.3505,-0.1459,0.0105,0.7467
1781765698374,0.0122,-0.6088,0.3469,-0.232,-0.1013,0.6445
1781765698395,0.0122,-0.6088,0.3469,-0.232,-0.1013,0.6445
1781765698414,-0.1181,-0.505,0.24,-0.1969,-0.1001,0.3269
1781765698434,0.2513,-0.5893,0.7117,-0.1141,-0.2797,0.1571
1781765698454,0.1709,-0.9137,1.0205,-0.0698,-0.4074,-0.0587
1781765698474,0.1043,-0.0898,0.4342,0.0214,-0.3465,-0.1223
1781765698495,0.1043,-0.0898,0.4342,0.0214,-0.3465,-0.1223
1781765698514,-0.0806,-0.3091,0.4896,0.0374,-0.2476,-0.1913
1781765698534,0.1915,-0.6268,0.7439,-0.0637,-0.458,-0.2409
1781765698554,0.3195,-0.9641,1.0067,0.0438,-0.3945,-0.4008
1781765698574,0.0229,-0.2623,1.1229,0.3729,-0.5994,-0.5013
1781765698594,0.7173,0.7698,0.465,-0.0324,-1.5939,-0.4213
1781765698614,0.6943,0.6766,-0.2506,-0.1204,-0.7871,-0.0909
1781765698634,0.702,0.2801,-0.5254,-0.081,-0.2548,0.0056
1781765698654,0.702,0.2801,-0.5254,-0.081,-0.2548,0.0056
1781765698674,0.632,-0.2858,0.3643,0.0553,-0.0761,0.0165
1781765698695,0.1616,-0.045,0.3859,-0.0381,-0.1732,-0.0138
1781765698715,-0.1717,-0.0402,0.4941,-0.0485,-0.2078,-0.0494
1781765698734,-0.1717,-0.0402,0.4941,-0.0485,-0.2078,-0.0494
1781765698755,-0.8001,0.6264,0.1274,-0.0119,-0.483,-0.2256
1781765698774,-1.1674,1.0518,0.25,-0.1095,-0.5228,-0.2899
1781765698794,0.4302,0.3443,0.6388,-0.2319,-0.2017,0.1803
1781765698814,1.8437,0.6967,0.2028,-0.1208,-0.39,0.1626
1781765698833,2.1033,0.1614,-0.2471,-0.1329,-0.1777,0.0485
1781765698853,1.4396,0.1391,-0.4608,-0.2963,-0.16,0.1285
1781765698875,0.6524,0.4104,0.6656,-0.2303,-0.3712,0.35
1781765698894,0.3334,3.728,1.458,-0.0204,-1.1516,0.4924
1781765698914,0.11,3.8053,4.3324,0.7823,-1.4623,0.2979
1781765698934,0.5568,0.7964,4.7063,1.058,-2.2959,-0.5515
1781765698955,-3.0879,-3.9614,-1.7446,0.4627,-0.0978,-0.186
1781765698974,-5.6612,-8.4248,-3.8204,-0.3514,0.5015,0.9112
1781765698995,2.2127,1.2765,1.2473,-0.304,0.8371,0.7796
1781765699014,1.0714,0.2057,1.8345,0.1895,-0.0519,1.0298
1781765699034,0.2602,-1.0113,0.5132,0.1643,-0.7524,0.904
1781765699054,-1.4953,-0.816,-0.2614,-0.0845,-0.6895,0.754
1781765699073,-1.1808,-0.7649,-0.3005,-0.3949,-0.2658,0.5755
1781765699094,-0.824,-0.4804,-0.0096,-0.5004,-0.0943,0.3176
1781765699114,-0.4987,-0.2708,0.1432,-0.4755,-0.2147,0.0955
1781765699134,0.3533,-0.6375,0.1232,-0.3953,-0.2792,0.0187
1781765699154,0.7965,-0.3865,-0.0465,-0.2588,-0.1892,-0.1167
1781765699174,0.7568,-0.2577,-0.0585,-0.1502,0.1554,-0.2416
1781765699195,0.4443,-0.467,-0.0335,-0.1042,0.5141,-0.4031
1781765699214,0.2368,-0.5837,0.3325,0.3394,0.2303,-0.4944
1781765699234,-0.258,-0.0294,0.5172,0.3057,-0.2919,-0.3997
1781765699253,-0.6841,1.4869,0.6506,-0.1598,0.0683,-0.1618
1781765699274,-0.0639,0.8392,0.1431,-0.2055,0.3021,-0.0394
1781765699295,0.5189,0.6445,0.6531,-0.1105,0.1804,-0.0225
1781765699314,0.544,0.2087,0.653,-0.0484,0.1793,-0.0487
1781765699334,0.2107,-0.2366,0.249,0.0154,0.101,-0.0214
1781765699354,0.0189,0.1276,0.3693,0.0529,0.1125,-0.0689
1781765699375,0.0729,0.2189,0.2139,0.0303,0.1018,-0.0823
1781765699394,-0.09,-0.7827,0.261,-0.0006,-0.069,-0.0744
1781765699414,-0.4177,0.0189,0.3669,-0.0766,0.0523,-0.0664
1781765699434,-0.3991,0.1371,0.323,-0.1217,0.1204,-0.0313
1781765699454,-0.1575,-0.0891,0.4047,-0.0763,0.1408,-0.045
1781765699474,-0.2291,-0.0234,0.3813,-0.0201,0.1867,-0.086
1781765699494,-0.425,0.0546,0.2762,-0.0043,0.2968,-0.0988
1781765699514,-0.4894,0.2233,0.3024,0.0037,0.3881,-0.1071
1781765699534,-0.5676,0.2916,0.4185,0.0226,0.4498,-0.1028
1781765699554,-0.5591,0.3301,0.5345,0.0611,0.4791,-0.0935
1781765699574,-0.4868,0.3314,0.5633,0.1074,0.4834,-0.0787
1781765699594,-0.3661,0.2388,0.5021,0.136,0.4657,-0.0642
1781765699614,-0.2355,0.1441,0.402,0.1496,0.4378,-0.0467
1781765699634,-0.0699,0.0873,0.3526,0.1552,0.4,-0.0312
1781765699653,0.0532,0.0773,0.3266,0.1544,0.3575,-0.0238
1781765699674,0.134,0.0926,0.3553,0.1593,0.3133,-0.017
1781765699696,0.1249,0.064,0.3844,0.1651,0.257,-0.0171
1781765699714,0.1,0.0173,0.4126,0.1735,0.1893,-0.0178
1781765699734,0.0779,0.0016,0.4212,0.1849,0.138,-0.0152
1781765699753,0.0944,0.0378,0.4211,0.1941,0.1056,-0.0206
1781765699774,0.0319,0.084,0.4146,0.2078,0.0977,-0.0232
1781765699795,-0.0802,0.1187,0.3744,0.227,0.1101,-0.0226
1781765699814,-0.1901,0.1362,0.2984,0.2406,0.1309,-0.0112
1781765699834,-0.2286,0.1616,0.3003,0.262,0.1744,-0.0022
1781765699855,-0.2773,0.0998,0.3776,0.2877,0.2025,0.0148
1781765699874,-0.2228,0.1008,0.3812,0.3019,0.2149,0.0254
1781765699894,-0.1658,0.0763,0.3466,0.3019,0.2129,0.0368
1781765699913,-0.019,0.0283,0.2519,0.2893,0.1953,0.0433
1781765699934,0.1057,-0.0555,0.1579,0.2781,0.178,0.0415
1781765699954,0.2195,-0.1368,0.0349,0.2692,0.1374,0.0321
1781765699974,0.4085,-0.2371,-0.1363,0.2482,0.1266,0.0156
1781765699995,0.581,-0.31,-0.2305,0.2122,0.1381,-0.0109
1781765700014,0.5333,-0.4285,-0.2422,0.1682,0.1487,-0.036
1781765700034,0.515,-0.5104,-0.2539,0.1389,0.1468,-0.0558
1781765700054,0.4857,-0.4629,-0.2398,0.1116,0.1147,-0.0764
1781765700073,0.483,-0.4409,-0.2511,0.0819,0.0843,-0.0908
1781765700094,0.4365,-0.373,-0.1864,0.0615,0.0578,-0.0944
1781765700113,0.3844,-0.2526,-0.0907,0.0432,0.018,-0.096
1781765700134,0.328,-0.1486,-0.0439,0.0378,-0.0106,-0.0915
1781765700153,0.3113,-0.1004,-0.0044,0.039,-0.0508,-0.0854
1781765700174,0.3229,-0.0932,0.0438,0.0361,-0.0988,-0.0764
1781765700196,0.2749,-0.1151,0.0666,0.0364,-0.1515,-0.0698
1781765700214,0.2316,-0.1137,0.066,0.0349,-0.1781,-0.0624
1781765700234,0.1952,-0.0729,0.0987,0.0334,-0.1942,-0.0642
1781765700254,0.1301,-0.0577,0.1397,0.033,-0.1973,-0.0655
1781765700275,0.0449,-0.0327,0.1457,0.0313,-0.1983,-0.0617
1781765700295,0.0073,-0.021,0.1468,0.0362,-0.1953,-0.0627
1781765700314,0.0413,-0.0395,0.1228,0.0362,-0.1835,-0.0681
1781765700334,0.0785,-0.0799,0.1095,0.0315,-0.1776,-0.07
1781765700354,0.0853,-0.0813,0.1487,0.0221,-0.1735,-0.076
1781765700374,0.0487,-0.0767,0.199,0.0132,-0.1727,-0.0785
1781765700395,0.0579,-0.06,0.2565,0.0009,-0.1726,-0.0694
1781765700413,0.1243,-0.0118,0.3352,-0.0038,-0.1708,-0.0637
1781765700434,0.1815,-0.0048,0.3507,0.0012,-0.1807,-0.0617
1781765700453,0.1857,-0.0938,0.3677,-0.0004,-0.2016,-0.0612
1781765700474,0.1977,-0.1191,0.3991,-0.0058,-0.2095,-0.0587
1781765700494,0.1962,-0.0914,0.4301,-0.0072,-0.2113,-0.0564
1781765700514,0.1703,-0.0578,0.3891,0.0012,-0.2061,-0.0586
1781765700534,0.1815,-0.0738,0.3084,0.0059,-0.1972,-0.0548
1781765700554,0.2152,-0.1515,0.2567,0.0027,-0.1938,-0.0503
1781765700575,0.2834,-0.1788,0.2186,-0.0045,-0.1945,-0.0561
1781765700595,0.3333,-0.1641,0.1589,-0.0132,-0.1942,-0.0576
1781765700614,0.3325,-0.1198,0.1409,-0.0236,-0.2067,-0.0589
1781765700634,0.3133,-0.0918,0.1209,-0.028,-0.2293,-0.0543
1781765700654,0.3523,-0.1206,0.1198,-0.0297,-0.2598,-0.049
1781765700674,0.3644,-0.2031,0.1235,-0.038,-0.2921,-0.0472
1781765700694,0.387,-0.2223,0.1063,-0.0541,-0.3361,-0.0444
1781765700714,0.3398,-0.1511,0.1211,-0.0711,-0.354,-0.0419
1781765700734,0.2523,-0.0557,0.1587,-0.0746,-0.3616,-0.0252
1781765700754,0.158,-0.0753,0.2075,-0.0714,-0.3755,-0.009
1781765700774,0.123,-0.0808,0.2338,-0.0658,-0.3878,-0.0015
1781765700794,0.0715,-0.0616,0.2521,-0.0608,-0.3861,0.0008
1781765700814,0.0346,0.0013,0.2208,-0.0609,-0.3769,0.001
1781765700834,-0.0352,0.064,0.2279,-0.0583,-0.3682,0.0018
1781765700854,-0.0433,0.0695,0.1694,-0.0598,-0.3648,0.0004
1781765700874,-0.0246,-0.0007,0.1834,-0.0635,-0.3639,-0.0118
1781765700894,-0.0145,-0.0376,0.2994,-0.066,-0.3492,-0.0311
1781765700914,-0.1188,-0.002,0.413,-0.0534,-0.3168,-0.0516
1781765700934,-0.2609,0.0608,0.4728,-0.0335,-0.2586,-0.0671
1781765700954,-0.3726,0.0939,0.4457,-0.0162,-0.1827,-0.0595
1781765700974,-0.3595,0.1182,0.4501,0.0019,-0.1134,-0.0487
1781765700994,-0.195,0.0751,0.4883,0.0208,-0.0602,-0.0493
1781765701014,-0.0211,0.0568,0.5411,0.0365,-0.034,-0.0586
1781765701034,0.1131,0.0226,0.5729,0.0416,-0.0187,-0.0623
1781765701054,0.1831,-0.0268,0.5911,0.0421,-0.0159,-0.0658
1781765701074,0.1831,-0.0268,0.5911,0.048,-0.0069,-0.0654
1781765701094,0.149,-0.0207,0.5134,0.0534,0.0004,-0.0676
1781765701114,0.0607,0.0192,0.4638,0.061,0.0114,-0.059
1781765701133,0.0607,0.0192,0.4638,0.061,0.0114,-0.059
1781765701154,0.0196,0.0214,0.4194,0.0613,0.0139,-0.0458
1781765701174,0.0578,-0.0146,0.4015,0.0633,0.0079,-0.0401
1781765701195,0.0685,-0.0378,0.3544,0.0679,0.0116,-0.0342
1781765701213,0.0582,-0.0444,0.352,0.0698,0.0324,-0.0327
1781765701234,0.059,-0.0135,0.3808,0.0723,0.0526,-0.0256
1781765701254,0.0649,0.0001,0.4236,0.0824,0.0726,-0.0236
1781765701274,0.0794,-0.0167,0.4693,0.0989,0.0924,-0.021
1781765701294,0.0677,-0.0935,0.3847,0.101,0.119,-0.0206
1781765701314,0.1292,-0.0778,0.3298,0.096,0.1332,-0.0253
1781765701334,0.2152,-0.1174,0.3269,0.0965,0.1257,-0.0232
1781765701354,0.2595,-0.1277,0.2809,0.0835,0.1286,-0.0248
1781765701374,0.1941,-0.1716,0.274,0.0736,0.1267,-0.0269
1781765701394,0.0667,-0.23,0.2102,0.06,0.1291,-0.0194
1781765701414,0.0635,-0.1172,0.217,0.0512,0.1443,-0.0151
1781765701435,0.2268,-0.1006,0.2849,0.0514,0.1526,-0.0064
1781765701454,0.3654,-0.1269,0.3129,0.0445,0.1311,-0.0101
1781765701474,0.4664,-0.1417,0.3838,0.0416,0.1007,-0.0122
1781765701494,0.4358,-0.0996,0.4368,0.0457,0.0701,-0.0148
1781765701514,0.2832,-0.058,0.4132,0.0423,0.0447,-0.0058
1781765701534,0.2233,-0.0576,0.3411,0.0338,0.0256,0.0077
1781765701554,0.2596,-0.1305,0.2709,0.0278,0.0029,0.0173
1781765701574,0.2416,-0.1701,0.1817,0.022,0.0013,0.0168
1781765701594,0.2364,-0.1561,0.1364,0.0113,0.0094,0.0144
1781765701614,0.1851,-0.1974,0.1499,0.0086,0.0247,0.0133
1781765701634,0.1752,-0.2225,0.1144,0.0014,0.0263,0.0126
1781765701654,0.2276,-0.1944,0.0612,-0.0113,0.0381,0.0078
1781765701674,0.2757,-0.2603,0.0939,-0.0236,0.0428,0.0024
1781765701694,0.2955,-0.2203,0.1854,-0.0301,0.0403,-0.0029
1781765701714,0.2716,-0.1767,0.207,-0.043,0.0256,0.0006
1781765701734,0.2563,-0.1836,0.2653,-0.0498,0.0111,0.0009
1781765701754,0.2449,-0.1331,0.2992,-0.05,0.012,0.0083
1781765701774,0.2328,-0.0989,0.3116,-0.0495,0.013,0.0128
1781765701794,0.2316,-0.0452,0.3163,-0.0522,0.0097,0.0171
1781765701813,0.2718,-0.0659,0.3458,-0.0476,-0.0045,0.0199
1781765701834,0.3268,-0.0818,0.3837,-0.0434,-0.023,0.0233
1781765701854,0.3198,-0.0924,0.3889,-0.0416,-0.0335,0.0261
1781765701875,0.2078,-0.0427,0.3795,-0.0465,-0.0411,0.0294
1781765701894,0.1004,-0.0263,0.3997,-0.0478,-0.0444,0.0376
1781765701914,0.0725,-0.0524,0.4297,-0.0437,-0.0453,0.0475
1781765701934,0.1567,-0.0587,0.4231,-0.0409,-0.0443,0.0466
1781765701954,0.1722,-0.0997,0.3606,-0.052,-0.0325,0.0423
1781765701974,0.1316,-0.1127,0.4005,-0.0606,-0.0181,0.0381
1781765701996,0.0708,-0.1016,0.4409,-0.062,0.0017,0.0381
1781765702014,0.0809,-0.1094,0.4694,-0.0616,0.017,0.0371
1781765702034,0.144,-0.1465,0.4513,-0.0668,0.0324,0.0269
1781765702054,0.1814,-0.1164,0.4395,-0.0717,0.0481,0.0062
1781765702074,0.1192,-0.0465,0.447,-0.0731,0.0675,-0.0094
1781765702095,-0.0241,0.0171,0.4157,-0.0688,0.0902,-0.0096
1781765702114,-0.1007,0.0602,0.3804,-0.0621,0.1081,-0.0019
1781765702134,-0.0595,0.0672,0.3776,-0.056,0.1135,0.0184
1781765702154,0.0646,0.0875,0.426,-0.0466,0.1121,0.0302
1781765702174,0.1898,0.0856,0.4799,-0.0352,0.0949,0.0352
1781765702194,0.243,0.0635,0.525,-0.0295,0.0662,0.0359
1781765702214,0.1883,0.0632,0.5675,-0.0215,0.0239,0.0398
1781765702234,0.0718,0.0836,0.5324,-0.0118,-0.0099,0.0461
1781765702254,-0.0674,0.0343,0.4098,-0.0132,-0.0368,0.0593
1781765702274,-0.0837,0.0048,0.2984,-0.0198,-0.0397,0.0688
1781765702294,-0.0362,0.0191,0.2284,-0.0206,-0.0227,0.067
1781765702314,0.014,0.0503,0.2174,-0.0154,0.0007,0.0545
1781765702334,-0.0223,0.0668,0.2452,-0.018,0.02,0.0397
1781765702354,-0.2144,-0.0072,0.2371,-0.0299,0.0459,0.039
1781765702374,-0.3666,-0.1246,0.2088,-0.0441,0.0624,0.0454
1781765702394,-0.2821,-0.1581,0.1416,-0.0525,0.0837,0.0533
1781765702414,0.0006,-0.1296,0.1445,-0.0596,0.1094,0.0526
1781765702434,0.2246,-0.1147,0.1793,-0.0632,0.1345,0.0427
1781765702454,0.3215,-0.0774,0.244,-0.0711,0.1334,0.0306
1781765702474,0.2822,-0.0863,0.2564,-0.0769,0.1128,0.0219
1781765702494,0.1979,-0.1394,0.2484,-0.0814,0.0872,0.0163
1781765702515,0.1723,-0.095,0.2419,-0.0762,0.0635,0.0174
1781765702534,0.179,-0.0361,0.2021,-0.0727,0.0521,0.0207
1781765702554,0.1858,-0.0345,0.1683,-0.0709,0.0539,0.0157
1781765702574,0.1807,-0.0676,0.1904,-0.0725,0.0582,0.0117
1781765702594,0.1071,-0.088,0.2329,-0.0748,0.0539,0.0102
1781765702614,0.0348,-0.0963,0.2564,-0.0802,0.061,0.0129
1781765702634,0.0123,-0.0706,0.288,-0.0869,0.0705,0.012
1781765702654,0.0403,0.0043,0.3315,-0.0912,0.0924,0.0091
1781765702674,0.0397,0.0469,0.3766,-0.0898,0.1173,0.0023
1781765702694,-0.0351,0.0376,0.4002,-0.0808,0.136,-0.0089
1781765702714,-0.0916,0.1102,0.3752,-0.0634,0.1449,-0.0189
1781765702734,-0.1515,0.1243,0.3408,-0.0466,0.1512,-0.0126
1781765702754,-0.2171,0.1535,0.3014,-0.0288,0.1504,-0.0052
1781765702774,-0.2497,0.1417,0.2664,-0.0194,0.1476,0.0086
1781765702794,-0.2311,0.0981,0.2097,-0.0145,0.1457,0.0218
1781765702814,-0.1612,0.1033,0.251,-0.0031,0.1443,0.0296
1781765702834,-0.134,0.0846,0.2644,0.0076,0.1495,0.0368
1781765702854,-0.1018,0.0298,0.269,0.0087,0.1425,0.0423
1781765702874,-0.0473,0.0232,0.2903,0.0086,0.1195,0.0521
1781765702894,0.0556,-0.0085,0.2787,0.0147,0.0866,0.0601
1781765702915,0.1585,-0.0916,0.2401,0.0153,0.0651,0.0535
1781765702934,0.2164,-0.0711,0.2593,0.0109,0.0588,0.0498
1781765702954,0.189,0.0252,0.2717,0.0097,0.0454,0.0495
1781765702974,0.1612,0.0092,0.2563,0.0133,0.0346,0.0427
1781765702994,0.13,0.0411,0.2799,0.0187,0.0295,0.0412
1781765703014,0.034,0.0067,0.2649,0.0238,0.026,0.0452
1781765703034,0.0241,0.0419,0.2572,0.0353,0.0403,0.0445
1781765703053,0.0259,0.0402,0.2788,0.0441,0.0714,0.0461
1781765703074,-0.0338,0.0288,0.2568,0.0559,0.0754,0.0506
1781765703094,-0.0395,-0.0146,0.1463,0.0567,0.0619,0.0544
1781765703114,0.0453,-0.1324,0.0283,0.0508,0.0509,0.0599
1781765703134,0.2252,-0.2479,-0.0554,0.0352,0.0373,0.0467
1781765703154,0.3153,-0.29,-0.0894,0.0102,0.0327,0.0305
1781765703174,0.2522,-0.3073,-0.0824,-0.0271,0.0288,0.0202
1781765703194,0.1268,-0.2887,-0.0443,-0.0586,0.0261,0.0181
1781765703215,0.1268,-0.2887,-0.0443,-0.0586,0.0261,0.0181
1781765703234,0.1253,-0.1274,0.0636,-0.0608,0.0334,0.0239
1781765703254,0.2089,-0.1204,0.054,-0.0537,0.0493,0.0189
1781765703274,0.267,-0.1642,0.0736,-0.0455,0.0494,0.0142
1781765703295,0.3153,-0.1305,0.1224,-0.0431,0.0273,0.0034
1781765703315,0.3153,-0.1305,0.1224,-0.0431,0.0273,0.0034
1781765703334,0.0937,-0.1058,0.075,-0.0516,0.005,0.0007
1781765703354,0.0351,-0.1067,0.061,-0.0442,0.0115,0.0018
1781765703373,0.0228,-0.1282,0.0546,-0.0366,0.0198,0.0045
1781765703394,0.0172,-0.0837,0.0649,-0.0334,0.0272,0.003
1781765703415,0.0172,-0.0837,0.0649,-0.0334,0.0272,0.003
1781765703434,-0.1159,0.0066,0.1368,-0.0379,0.0345,-0.0054
1781765703454,-0.2124,0.0711,0.1881,-0.0405,0.0574,-0.0069
1781765703474,-0.2243,0.0984,0.2312,-0.0348,0.0751,-0.0063
1781765703493,-0.2243,0.0984,0.2312,-0.0348,0.0751,-0.0063
1781765703514,-0.1832,0.0551,0.2134,-0.0308,0.0926,-0.0098
1781765703534,-0.1207,0.0477,0.2375,-0.0253,0.1134,-0.0119
1781765703554,-0.0513,0.0784,0.2857,-0.0246,0.1163,-0.004
1781765703573,-0.0513,0.0784,0.2857,-0.0246,0.1163,-0.004
1781765703594,-0.0009,0.0148,0.2963,-0.0171,0.1077,0.0018
1781765703615,0.0536,-0.0782,0.2835,-0.0142,0.0916,0.0008
1781765703634,0.1829,0.0381,0.2719,-0.0039,0.0757,-0.0073
1781765703655,0.1925,0.0824,0.2382,-0.0001,0.0583,-0.014
1781765703674,0.0903,0.0088,0.2088,-0.0024,0.0423,-0.01
1781765703694,0.0033,-0.0329,0.2321,0.0009,0.021,-0.0023
1781765703714,-0.0913,-0.0476,0.2473,0.0111,0.0032,0.0091
1781765703734,-0.1094,0.01,0.2376,0.0267,0.0036,0.0167
1781765703754,-0.0764,0.0445,0.215,0.0445,0.0236,0.0136
1781765703773,-0.0607,0.0312,0.1895,0.0496,0.0355,0.0062
1781765703795,-0.0711,0.0099,0.1742,0.0492,0.0264,0.004
1781765703815,-0.0778,-0.0302,0.1324,0.0422,0.0156,-0.0006
1781765703834,-0.0776,-0.078,0.1163,0.0304,0.015,0.0031
1781765703854,-0.0596,-0.1011,0.1328,0.0182,0.0174,0.0039
1781765703873,-0.0214,-0.0912,0.1838,0.0095,0.0158,0.0012
1781765703894,-0.0162,-0.0865,0.1971,0.0119,0.0176,0.0003
1781765703915,0.025,0.0027,0.1985,0.0069,0.0086,0.0089
1781765703934,0.1195,-0.0124,0.1935,0.0064,0.0084,0.0047
1781765703954,0.1711,-0.0478,0.2208,0.0128,0.0056,-0.0094
1781765703974,0.08,0.0246,0.2712,0.0233,0.0085,-0.0254
1781765703995,-0.0944,0.0571,0.2688,0.0375,0.0293,-0.0307
1781765704016,-0.2656,0.1098,0.2891,0.0427,0.0598,-0.0306
1781765704034,-0.3623,0.1289,0.3126,0.0513,0.0971,-0.0272
1781765704054,-0.3383,0.1886,0.319,0.064,0.1252,-0.0249
1781765704073,-0.3079,0.1599,0.2958,0.0781,0.152,-0.0265
1781765704094,-0.3714,0.06,0.2893,0.0866,0.1831,-0.0313
1781765704114,-0.3983,0.0326,0.3271,0.095,0.2095,-0.0289
1781765704134,-0.3366,0.1023,0.3438,0.1078,0.2336,-0.0262
1781765704154,-0.1956,0.1263,0.3245,0.1244,0.2474,-0.0183
1781765704174,-0.0029,0.0217,0.2356,0.1295,0.2426,-0.0207
1781765704194,0.1433,-0.1616,0.1103,0.1186,0.2147,-0.022
1781765704215,0.2225,-0.2532,0.0279,0.0987,0.176,-0.0266
1781765704234,0.2698,-0.2201,0.0345,0.0764,0.138,-0.0243
1781765704254,0.2874,-0.1596,0.09,0.0628,0.0996,-0.0257
1781765704273,0.258,-0.1335,0.148,0.0514,0.0707,-0.0216
1781765704294,0.2224,-0.1276,0.1656,0.0478,0.0455,-0.0251
1781765704316,0.1421,-0.126,0.1881,0.0481,0.0053,-0.0197
1781765704334,0.2463,-0.0848,0.1123,0.034,-0.0059,-0.018
1781765704354,0.3005,-0.0836,0.1212,0.0254,-0.0043,-0.0272
1781765704373,0.2408,-0.0812,0.2023,0.0252,-0.0106,-0.0334
1781765704394,0.1501,-0.0895,0.2388,0.0225,-0.0195,-0.0353
1781765704415,0.0844,-0.0682,0.255,0.02,-0.0305,-0.036
1781765704434,0.0717,-0.0631,0.2411,0.0172,-0.0422,-0.031
1781765704453,0.1359,-0.0617,0.2329,0.0137,-0.0446,-0.0293
1781765704473,0.1687,-0.1037,0.2597,0.0122,-0.0524,-0.0312
1781765704494,0.1794,-0.1007,0.269,0.0046,-0.0637,-0.0325
1781765704516,0.1269,-0.0795,0.2704,-0.0024,-0.0761,-0.0319
1781765704534,0.074,-0.0506,0.2971,-0.0102,-0.0876,-0.0231
1781765704554,0.0805,-0.0445,0.3091,-0.0151,-0.0974,-0.0177
1781765704573,0.127,-0.0909,0.3443,-0.0142,-0.1021,-0.0183
1781765704594,0.1581,-0.0855,0.3399,-0.008,-0.1053,-0.0211
1781765704615,0.1504,-0.0652,0.3283,-0.0136,-0.1093,-0.0184
1781765704634,0.1521,-0.0568,0.3016,-0.0174,-0.1164,-0.0167
1781765704654,0.1607,-0.0777,0.2831,-0.0208,-0.1337,-0.0093
1781765704673,0.1514,-0.0924,0.2832,-0.0281,-0.144,-0.0075
1781765704694,0.1749,-0.1153,0.2912,-0.0328,-0.1558,-0.0061
1781765704716,0.1756,-0.1252,0.3098,-0.0394,-0.171,-0.004
1781765704733,0.1277,-0.0965,0.3065,-0.0453,-0.1801,-0.0062
1781765704754,0.0987,-0.0779,0.3145,-0.0472,-0.183,-0.0093
1781765704774,0.0888,-0.1102,0.2865,-0.0516,-0.1729,-0.0113
1781765704794,0.0788,-0.1026,0.2801,-0.0498,-0.1536,-0.0126
1781765704816,0.0897,-0.0574,0.2741,-0.0468,-0.1371,-0.0113
1781765704834,0.1102,-0.0436,0.2522,-0.0453,-0.1284,-0.0083
1781765704854,0.1125,-0.0985,0.2373,-0.046,-0.1326,-0.0091
1781765704873,0.144,-0.1173,0.2401,-0.0482,-0.1444,-0.0078
1781765704894,0.1612,-0.0784,0.2387,-0.0517,-0.1553,-0.0065
1781765704916,0.1721,-0.0664,0.2414,-0.0579,-0.1641,-0.0037
1781765704934,0.169,-0.066,0.2615,-0.0534,-0.1708,-0.0059
1781765704954,0.1134,-0.0942,0.2546,-0.051,-0.1757,-0.0044
1781765704973,0.0803,-0.0933,0.2412,-0.0557,-0.1766,-0.0089
1781765704994,0.0581,-0.0711,0.2511,-0.0579,-0.1746,-0.0113
1781765705014,0.0007,-0.0378,0.2571,-0.0548,-0.1624,-0.0136
1781765705034,-0.0589,-0.006,0.2559,-0.0524,-0.1514,-0.0143
1781765705054,-0.0975,-0.0021,0.2468,-0.0529,-0.1439,-0.0111
1781765705073,-0.103,-0.0163,0.2472,-0.0498,-0.1323,-0.0083
1781765705095,-0.0631,-0.0147,0.266,-0.051,-0.1254,-0.0039
1781765705116,-0.0262,-0.0086,0.2745,-0.0473,-0.1208,-0.0005
1781765705134,0.0146,-0.0125,0.2775,-0.0484,-0.1189,0.001
1781765705154,0.0407,-0.017,0.293,-0.0473,-0.1212,0.0014
1781765705174,0.0239,-0.0024,0.3157,-0.0376,-0.1207,-0.0002
1781765705195,-0.0172,0.0248,0.3151,-0.0293,-0.1194,-0.0005
1781765705215,-0.0272,0.0292,0.2953,-0.0271,-0.1058,0.0008
1781765705234,-0.0335,0.0119,0.2776,-0.0177,-0.0985,0.0018
1781765705254,-0.0416,-0.0189,0.2505,-0.0131,-0.091,-0.0001
1781765705275,-0.0443,-0.0273,0.2523,-0.0085,-0.0824,0.0006
1781765705294,-0.0682,-0.0363,0.2326,-0.0081,-0.0712,-0.001
1781765705314,-0.0828,-0.0193,0.2458,-0.0081,-0.0534,-0.0018
1781765705334,-0.1045,-0.0245,0.228,-0.0024,-0.0328,-0.0027
1781765705354,-0.1071,-0.0224,0.2324,0.0057,-0.0089,-0.0041
1781765705374,-0.1075,-0.0183,0.2244,0.0107,0.0152,-0.0037
1781765705394,-0.0996,0.0005,0.2081,0.0153,0.036,-0.0039
1781765705415,-0.0813,-0.0077,0.2043,0.0213,0.0501,-0.0055
1781765705434,-0.0573,-0.0064,0.2106,0.0297,0.0703,-0.0017
1781765705455,-0.0259,-0.012,0.2008,0.0397,0.0801,0.0009
1781765705473,0.0122,-0.0411,0.2038,0.0453,0.0781,0.0066
1781765705494,0.0783,-0.0607,0.2082,0.0497,0.0816,0.0074
1781765705514,0.1197,-0.0613,0.2008,0.0574,0.0868,0.0078
1781765705534,0.1271,-0.0506,0.2007,0.0617,0.0926,0.0055
1781765705554,0.0801,-0.0715,0.156,0.069,0.1012,0.0032
1781765705574,0.0352,-0.075,0.1284,0.0706,0.1123,0.007
1781765705595,0.0532,-0.0638,0.1082,0.0645,0.1129,0.0083
1781765705616,0.0719,-0.0411,0.1151,0.0687,0.1138,0.0075
1781765705634,0.088,-0.0676,0.1091,0.0646,0.113,0.0093
1781765705654,0.132,-0.1115,0.1382,0.0602,0.1087,0.0058
1781765705674,0.1628,-0.1127,0.1443,0.058,0.0975,0.0015
1781765705694,0.1726,-0.0844,0.1047,0.0541,0.0877,0.0042
1781765705714,0.1674,-0.0933,0.0917,0.0497,0.0814,0.0029
1781765705734,0.159,-0.1262,0.0959,0.0492,0.0779,0.0036
1781765705754,0.1599,-0.1093,0.1224,0.0475,0.0688,0.0047
1781765705774,0.1655,-0.0946,0.1426,0.0475,0.0605,0.0054
1781765705794,0.1408,-0.0959,0.1528,0.0442,0.0586,0.0018
1781765705814,0.1258,-0.0808,0.161,0.0432,0.056,0.0036
1781765705834,0.1194,-0.0911,0.1403,0.0368,0.046,0.0011
1781765705854,0.0962,-0.1216,0.1172,0.0363,0.0406,0.0016
1781765705874,0.0802,-0.1101,0.1108,0.0346,0.0465,0.003
1781765705894,0.0983,-0.078,0.1282,0.0327,0.054,0.0005
1781765705914,0.0983,-0.078,0.1282,0.0309,0.0531,0.0002
1781765705934,0.1123,-0.0548,0.1861,0.0295,0.0444,-0.0043
1781765705954,0.0563,-0.0976,0.1398,0.018,0.0338,-0.0037
1781765705974,0.0563,-0.0976,0.1398,0.018,0.0338,-0.0037
1781765705994,0.1041,-0.1341,0.0812,0.004,0.0296,-0.007
1781765706016,0.1041,-0.1341,0.0812,0.004,0.0296,-0.007
1781765706033,0.1484,-0.0803,0.1179,0.0052,0.0363,-0.0081
1781765706055,0.135,-0.0394,0.1596,0.0035,0.0378,-0.0125
1781765706074,0.0966,-0.0419,0.2061,0.005,0.0276,-0.0094
1781765706094,0.0659,-0.0524,0.2373,0.0017,0.007,-0.0079
1781765706114,0.0578,-0.0401,0.2502,-0.0002,-0.0088,-0.0086
1781765706134,0.0613,-0.0142,0.2667,-0.0006,-0.0235,-0.0073
1781765706154,0.034,-0.0225,0.2707,-0.001,-0.0314,-0.0042
1781765706174,-0.005,-0.0321,0.2773,0.0048,-0.0334,-0.0023
1781765706194,-0.0318,-0.0118,0.2821,0.0112,-0.0216,0.0005
1781765706214,-0.0379,0.0003,0.278,0.0136,-0.0071,0.002
1781765706234,-0.0084,0.0324,0.2695,0.0169,-0.0001,0.0048
1781765706254,0.0356,0.0311,0.2481,0.0179,-0.0009,0.0068
1781765706274,0.0623,-0.0313,0.225,0.0208,-0.0054,0.0033
1781765706294,0.0809,-0.0927,0.2282,0.0191,-0.0076,0.0007
1781765706314,0.0964,-0.106,0.2211,0.0168,-0.0081,0.0008
1781765706333,0.1082,-0.0754,0.2134,0.0154,-0.0163,0.0007
1781765706355,0.0888,-0.0501,0.2214,0.0159,-0.0236,-0.0005
1781765706374,0.0665,-0.0554,0.2101,0.0104,-0.0324,0.0016
1781765706394,0.0836,-0.0478,0.1972,0.0105,-0.0404,0.0031
1781765706414,0.0955,-0.0404,0.2062,0.009,-0.0482,0.0078
1781765706434,0.0588,-0.0581,0.1999,0.0115,-0.0542,0.0057
1781765706454,0.0505,-0.0445,0.2018,0.0133,-0.0502,0.0053
1781765706474,0.0428,-0.0422,0.1942,0.0116,-0.0491,0.0055
1781765706495,0.0298,-0.0354,0.1936,0.0098,-0.0511,0.0003
1781765706514,0.0024,-0.0242,0.2004,0.0102,-0.0518,0.0023
1781765706533,0.0002,-0.034,0.2083,0.0109,-0.0526,-0.0005
1781765706554,-0.021,-0.0274,0.2297,0.0123,-0.0476,0.0009
1781765706574,-0.0456,0.0099,0.2272,0.0142,-0.0455,0.0028
1781765706594,-0.0655,0.009,0.2132,0.0138,-0.0399,0.0035
1781765706614,-0.0423,-0.0018,0.1776,0.0189,-0.036,0.0069
1781765706634,0.0104,-0.0098,0.1834,0.0183,-0.0327,0.0078
1781765706654,0.0303,-0.0215,0.1776,0.0215,-0.0308,0.0055
1781765706674,0.0203,-0.0281,0.1669,0.0184,-0.0347,0.0076
1781765706694,0.0308,-0.0379,0.1673,0.0192,-0.0411,0.0045
1781765706714,0.0186,-0.0372,0.1663,0.0151,-0.0439,0.0033
1781765706734,-0.002,-0.0454,0.1435,0.0177,-0.0384,0.0043
1781765706754,-0.0229,-0.0472,0.137,0.018,-0.0344,0.0017
1781765706774,-0.0194,-0.0235,0.1242,0.0202,-0.0325,0.0044
1781765706794,0.0045,-0.028,0.128,0.021,-0.0295,0.0057
1781765706814,0.0092,-0.06,0.1202,0.0202,-0.0295,0.0033
1781765706834,-0.0006,-0.0569,0.0948,0.0144,-0.0231,0.0036
1781765706854,0.0044,-0.0532,0.075,0.0141,-0.018,0.0024
1781765706874,0.0223,-0.0795,0.0743,0.0133,-0.0125,0.0017
1781765706894,0.0476,-0.0989,0.0622,0.0123,-0.0133,0.0011
1781765706914,0.0535,-0.0854,0.0653,0.0083,-0.0088,-0.0043
1781765706934,0.0335,-0.0849,0.0573,0.0077,-0.0029,-0.0029
1781765706954,0.0463,-0.0796,0.074,0.0077,0.0033,-0.0064
1781765706974,0.0351,-0.0867,0.093,0.0056,0.0074,-0.011
1781765706994,0.0141,-0.0704,0.0797,0.0033,0.011,-0.0107
1781765707014,0.0028,-0.0618,0.0581,-0.0014,0.0104,-0.0115
1781765707034,0.0493,-0.0343,0.0724,-0.0042,0.0107,-0.0122
1781765707054,0.0859,-0.0642,0.0837,-0.0055,0.002,-0.012
1781765707074,0.1084,-0.0914,0.1023,-0.0044,-0.0039,-0.0129
1781765707094,0.1236,-0.0744,0.1329,-0.0027,-0.0121,-0.0181
1781765707114,0.0312,-0.0909,0.144,-0.004,-0.0179,-0.0179
1781765707134,-0.0127,-0.0696,0.1783,-0.0034,-0.0185,-0.0169
1781765707154,-0.0481,-0.0301,0.1907,-0.0009,-0.0164,-0.0146
1781765707174,-0.0534,0.0123,0.1859,0.0005,-0.0038,-0.0141
1781765707194,-0.0615,0.0448,0.1998,0.0076,0.0036,-0.0147
1781765707214,-0.0543,0.0843,0.2097,0.01,0.0114,-0.0141
1781765707234,-0.0262,0.0599,0.2099,0.0084,0.0077,-0.0087
1781765707254,-0.016,0.0181,0.1966,0.0131,0.0017,-0.0119
1781765707274,-0.0247,-0.0169,0.18,0.0129,0.0015,-0.0049
1781765707294,-0.0028,-0.0153,0.1918,0.0175,0.0053,-0.0071
1781765707314,0.0204,-0.0079,0.2058,0.0161,0.0018,-0.008
1781765707334,0.0121,-0.0024,0.1859,0.0185,-0.0062,-0.0094
1781765707354,-0.0002,0.0164,0.1572,0.0149,-0.0153,-0.0107
1781765707374,-0.0371,-0.051,0.1274,0.0125,-0.0192,-0.0055
1781765707394,-0.0494,-0.0703,0.112,0.008,-0.0131,-0.0114
1781765707414,-0.0534,-0.0103,0.1246,0.0121,-0.0027,-0.0117
1781765707434,-0.085,0.0243,0.1315,0.012,0.0094,-0.0129
1781765707454,-0.0877,0.0176,0.1205,0.0121,0.0155,-0.0102
1781765707474,-0.0381,-0.0079,0.108,0.0106,0.01,-0.0054
1781765707494,0.0148,-0.0295,0.1049,0.0162,0.006,-0.0074
1781765707514,0.0319,-0.053,0.1126,0.0174,0.0082,-0.0103
1781765707534,0.0188,-0.0287,0.1377,0.0172,0.0053,-0.01
1781765707554,-0.0021,-0.0365,0.1515,0.0182,-0.0003,-0.0108
1781765707574,-0.0211,-0.0263,0.131,0.0136,0.0002,-0.0121
1781765707594,-0.0392,-0.0142,0.0987,0.0167,0.0012,-0.0124
1781765707614,-0.0618,-0.057,0.0909,0.016,0.0086,-0.0122
1781765707634,-0.0481,-0.0405,0.1237,0.0144,0.0116,-0.0102
1781765707654,-0.0335,0.0065,0.1407,0.0135,0.0189,-0.0111
1781765707674,-0.0265,0.0197,0.1376,0.0163,0.018,-0.0035
1781765707694,0.0211,-0.029,0.1247,0.017,0.0125,-0.0023
1781765707714,0.1006,-0.0666,0.107,0.0203,0.0112,-0.006
1781765707734,0.133,-0.0644,0.0853,0.0192,0.005,-0.0109
1781765707754,0.1187,-0.0287,0.0956,0.0195,-0.0002,-0.0115
1781765707774,0.0778,-0.0411,0.0653,0.0167,-0.0101,-0.0142
1781765707794,0.0505,-0.067,0.0619,0.0175,-0.0194,-0.0099
1781765707814,0.0646,-0.0687,0.0486,0.0147,-0.0226,-0.0128
1781765707834,0.0592,-0.0494,0.043,0.0104,-0.0221,-0.0121
1781765707854,0.007,-0.0573,0.0531,0.0019,-0.0313,-0.0094
1781765707874,0.0286,-0.0492,0.0683,-0.0014,-0.044,-0.0054
1781765707894,0.0548,-0.0648,0.1016,0.005,-0.048,-0.0089
1781765707914,0.0211,-0.0834,0.1302,0.0105,-0.0434,-0.0109
1781765707935,0.0211,-0.0834,0.1302,0.0105,-0.0434,-0.0109
1781765707954,-0.1059,0.0479,0.1506,0.0111,-0.0252,-0.0108
1781765707974,-0.1029,0.06,0.1485,0.0097,-0.0167,-0.0099
1781765707994,-0.0872,0.0249,0.1355,0.0173,-0.0165,-0.0081
1781765708015,-0.0772,-0.0382,0.1267,0.0228,0.0008,-0.0067
1781765708035,-0.0772,-0.0382,0.1267,0.0228,0.0008,-0.0067
1781765708054,-0.0506,0.0085,0.1708,0.0307,0.0161,-0.0083
1781765708074,-0.0634,0.0173,0.1591,0.0334,0.0143,-0.0033
1781765708093,-0.0062,-0.0072,0.1195,0.034,0.0086,-0.0008
1781765708115,0.0795,-0.0372,0.0853,0.0343,0.0121,-0.0027
1781765708135,0.0795,-0.0372,0.0853,0.0343,0.0121,-0.0027
1781765708154,0.0918,-0.0721,0.0293,0.0295,-0.0048,-0.0041
1781765708175,0.0729,-0.0719,0.0374,0.0248,-0.0085,-0.0045
1781765708194,0.0548,-0.0695,0.0464,0.0206,-0.0154,-0.0084
1781765708214,0.0615,-0.0376,0.0388,0.0223,-0.0203,-0.0066
1781765708234,0.0615,-0.0376,0.0388,0.0223,-0.0203,-0.0066
1781765708254,0.064,-0.1006,-0.0251,0.0131,-0.0363,-0.0086
1781765708274,0.0681,-0.0953,0.0017,0.0072,-0.0323,-0.0125
1781765708294,0.0015,-0.1009,0.0348,0.0009,-0.0233,-0.0206
1781765708314,-0.0626,-0.095,0.0498,-0.0051,-0.0181,-0.0175
1781765708335,-0.0626,-0.095,0.0498,-0.0051,-0.0181,-0.0175
1781765708354,-0.0203,-0.0049,0.1068,-0.0091,-0.0075,-0.0174
1781765708374,-0.0058,0.0151,0.138,-0.0065,-0.0029,-0.0157
1781765708393,-0.0058,0.0151,0.138,-0.0065,-0.0029,-0.0157
1781765708414,0.0059,0.009,0.1594,0.0046,-0.0016,-0.0161
1781765708435,0.0059,0.009,0.1594,0.0046,-0.0016,-0.0161
1781765708454,0.096,0.0315,0.1761,0.0157,-0.0188,-0.0159
1781765708474,0.1108,-0.0059,0.2048,0.0157,-0.0188,-0.0159
1781765708494,0.0448,-0.0493,0.1763,0.0169,-0.0291,-0.0112
1781765708515,-0.0137,-0.0346,0.1415,0.0149,-0.0404,-0.0062
1781765708535,0.0072,-0.0297,0.0913,0.0118,-0.0456,-0.0035
1781765708554,0.039,-0.0431,0.0778,0.0048,-0.0416,-0.0059
1781765708574,0.0079,-0.0745,0.0768,0.0048,-0.0389,-0.003
1781765708594,-0.0246,-0.0962,0.0746,0.0051,-0.0321,-0.0097
1781765708615,-0.0181,-0.0551,0.081,0.0,-0.0238,-0.0126
1781765708635,0.0066,-0.0056,0.0996,-0.0097,-0.0172,-0.0152
1781765708654,-0.0082,-0.0107,0.1222,-0.0134,-0.0179,-0.0165
1781765708674,-0.0116,-0.0141,0.1457,-0.007,-0.0211,-0.0154
1781765708693,-0.0006,-0.0422,0.1525,-0.0046,-0.0178,-0.0138
1781765708714,-0.0087,-0.0602,0.1624,-0.0039,-0.0075,-0.017
1781765708734,-0.0258,-0.016,0.1908,-0.0048,0.0017,-0.0171
1781765708754,-0.0488,0.029,0.2033,-0.0049,0.0056,-0.0175
1781765708774,-0.1038,-0.0185,0.1917,-0.0028,0.006,-0.0163
1781765708794,-0.0832,-0.0005,0.1878,-0.0025,0.0146,-0.0107
1781765708815,-0.028,-0.0249,0.1405,-0.0015,0.0196,-0.0061
1781765708835,0.0555,-0.0884,0.1418,-0.0043,0.0196,-0.0004
1781765708854,0.11,-0.1014,0.1393,-0.0027,0.0097,-0.0013
1781765708874,0.1421,-0.0431,0.1543,0.0019,0.0028,0.0033
1781765708894,0.1417,-0.0221,0.145,0.0118,-0.0037,-0.0037
1781765708914,0.1289,0.016,0.1422,0.0172,-0.0159,-0.0034
1781765708935,0.0892,0.0075,0.1048,0.0147,-0.0289,-0.0015
1781765708954,0.0272,-0.0767,0.0918,0.0069,-0.0338,0.0004
1781765708975,-0.0283,-0.1004,0.1161,0.0073,-0.0237,0.0001
1781765708993,-0.1048,-0.1251,0.1225,0.0079,0.0014,-0.0079
1781765709014,-0.1832,-0.0775,0.1209,0.0036,0.0297,-0.0161
1781765709036,-0.2066,0.0125,0.1205,0.0003,0.051,-0.0201
1781765709054,-0.1499,0.03,0.0714,-0.006,0.0697,-0.0203
1781765709074,-0.0063,-0.0089,0.0869,-0.013,0.0805,-0.0259
1781765709094,0.1232,-0.0682,0.0957,-0.0095,0.0834,-0.0321
1781765709114,0.1157,-0.0895,0.1181,-0.0095,0.0804,-0.0347
1781765709135,0.0678,-0.0425,0.1283,-0.0085,0.07,-0.0368
1781765709153,0.019,-0.0202,0.1146,-0.013,0.0585,-0.0329
1781765709174,-0.0125,-0.0251,0.1129,-0.0124,0.0392,-0.0239
1781765709194,0.0045,-0.0294,0.093,-0.0152,0.0227,-0.0144
1781765709214,0.0951,0.0066,0.115,-0.0111,0.0124,-0.0168
1781765709235,0.0512,-0.0006,0.1637,-0.0062,0.0048,-0.016
1781765709254,-0.044,0.0312,0.2019,-0.0025,-0.0033,-0.0134
1781765709274,-0.07,0.0315,0.1735,0.0046,-0.0091,-0.0067
1781765709294,-0.0527,-0.0092,0.1386,0.0033,-0.0061,-0.0093
1781765709315,-0.0332,-0.013,0.1233,-0.001,0.0078,-0.0096
1781765709335,-0.0401,-0.0288,0.1118,-0.0023,0.0089,-0.0076
1781765709353,-0.0392,-0.0282,0.0991,-0.0037,0.0057,-0.0123
1781765709375,-0.0176,-0.022,0.0942,-0.0055,0.007,-0.0172
1781765709393,-0.0425,-0.0297,0.0745,-0.0144,0.0111,-0.0201
1781765709414,-0.0429,0.0009,0.0659,-0.0206,0.0068,-0.0167
1781765709435,-0.0115,-0.0156,0.0788,-0.0187,0.0035,-0.0086
1781765709455,0.0273,-0.0315,0.0601,-0.0131,-0.0071,-0.0106
1781765709474,0.039,-0.0871,0.0355,-0.0078,-0.0184,-0.0121
1781765709494,0.0635,-0.0834,0.027,-0.0107,-0.0272,-0.0161
1781765709514,0.0748,-0.0487,-0.0029,-0.0193,-0.0289,-0.0158
1781765709535,0.0477,-0.0358,-0.0355,-0.0236,-0.0353,-0.0174
1781765709554,0.0156,-0.0951,-0.0751,-0.0223,-0.0377,-0.0186
1781765709574,0.0271,-0.12,-0.0864,-0.0241,-0.0351,-0.0195
1781765709594,0.0533,-0.094,-0.0713,-0.0254,-0.0228,-0.0234
1781765709614,0.0166,-0.075,-0.0113,-0.0248,-0.0135,-0.0246
1781765709635,-0.0529,-0.0546,0.0025,-0.028,-0.0244,-0.0215
1781765709653,-0.0246,-0.0455,0.0226,-0.0273,-0.0322,-0.021
1781765709674,0.003,-0.0591,0.0488,-0.031,-0.0293,-0.0284
1781765709693,0.0094,-0.0159,0.0917,-0.0317,-0.0249,-0.0409
1781765709714,-0.0428,0.0507,0.0955,-0.0294,-0.0252,-0.0369
1781765709736,-0.0687,0.0249,0.0601,-0.0346,-0.0287,-0.0307
1781765709754,-0.0674,-0.0838,0.0925,-0.0362,-0.0213,-0.0314
1781765709774,-0.0875,-0.0535,0.1341,-0.0323,-0.0106,-0.0373
1781765709795,-0.1149,0.0403,0.2001,-0.0285,-0.0006,-0.0442
1781765709814,-0.1688,0.0767,0.2656,-0.0312,0.0034,-0.0401
1781765709834,-0.1515,0.0125,0.3004,-0.0347,0.0047,-0.0388
1781765709854,-0.1231,-0.0273,0.3305,-0.039,0.0125,-0.0365
1781765709874,-0.1316,0.0565,0.3451,-0.0322,0.0266,-0.0344
1781765709893,-0.1658,0.113,0.3447,-0.0232,0.0343,-0.0307
1781765709914,-0.1724,0.1204,0.3617,-0.0095,0.0407,-0.028
1781765709934,-0.1786,0.1282,0.3988,0.003,0.0494,-0.0242
1781765709954,-0.1471,0.147,0.4051,0.0197,0.0509,-0.0187
1781765709974,-0.0826,0.1317,0.4119,0.0386,0.0572,-0.0172
1781765709993,-0.0634,0.0765,0.401,0.057,0.0592,-0.0123
1781765710014,-0.0533,0.0538,0.3766,0.0703,0.0556,-0.0071
1781765710036,-0.0173,0.0592,0.3462,0.0784,0.0469,-0.0002
1781765710055,0.0245,0.0385,0.2886,0.0855,0.0369,0.0091
1781765710075,0.0398,0.0083,0.1908,0.0801,0.0116,0.0194
1781765710094,0.0566,0.0202,0.1262,0.075,-0.0137,0.0219
1781765710114,0.0633,-0.066,0.0989,0.0666,-0.0349,0.0213
1781765710136,0.0593,-0.0913,0.077,0.0602,-0.0476,0.0197
1781765710155,0.0774,-0.086,0.0379,0.0547,-0.0542,0.0247
1781765710174,0.1437,-0.0598,-0.002,0.0488,-0.0552,0.0304
1781765710194,0.201,-0.0602,-0.0324,0.0365,-0.0642,0.0346
1781765710214,0.2301,-0.167,-0.0783,0.0262,-0.0836,0.0358
1781765710234,0.2057,-0.266,-0.1288,0.0131,-0.0898,0.0278
1781765710254,0.192,-0.2207,-0.1554,-0.001,-0.0865,0.0165
1781765710274,0.1583,-0.1799,-0.1664,-0.0156,-0.0778,0.0079
1781765710294,0.1114,-0.143,-0.1857,-0.0302,-0.0802,0.0055
1781765710313,0.0839,-0.1912,-0.1788,-0.0402,-0.0924,0.0077
1781765710335,0.1024,-0.1893,-0.1794,-0.0512,-0.0983,0.003
1781765710354,0.1521,-0.189,-0.1591,-0.0605,-0.0956,0.0061
1781765710374,0.2347,-0.1429,-0.0996,-0.0682,-0.1012,0.0033
1781765710394,0.1988,-0.1365,-0.0407,-0.0729,-0.116,0.0014
1781765710414,0.157,-0.1097,-0.015,-0.0792,-0.1294,-0.0019
1781765710434,0.1273,-0.0961,0.017,-0.0801,-0.1426,0.0005
1781765710454,0.1707,-0.0764,0.0551,-0.0772,-0.1527,-0.0052
1781765710474,0.1029,-0.1187,0.0814,-0.0717,-0.155,-0.0097
1781765710494,0.011,-0.0321,0.0695,-0.0616,-0.1519,-0.0088
1781765710514,-0.0689,0.0379,0.0533,-0.0546,-0.1327,-0.0167
1781765710534,-0.0647,-0.0394,0.0407,-0.045,-0.1153,-0.0186
1781765710554,-0.0919,-0.0636,0.026,-0.0385,-0.1002,-0.0124
1781765710574,-0.0829,-0.039,-0.0286,-0.0406,-0.0862,0.0016
1781765710594,0.0319,-0.0603,-0.0172,-0.0422,-0.0781,0.0007
1781765710614,0.0449,-0.0689,0.0603,-0.0386,-0.0666,-0.0021
1781765710635,0.026,-0.0327,0.089,-0.0318,-0.0565,-0.0031
1781765710654,0.0237,-0.0449,0.062,-0.0261,-0.0556,-0.0038
1781765710674,0.0198,-0.0278,0.0379,-0.0252,-0.0599,-0.0009
1781765710694,0.0462,-0.0337,0.0907,-0.0334,-0.0931,0.0009
1781765710714,-0.0108,-0.0538,0.1009,-0.024,-0.0658,-0.0176
1781765710734,-0.1,-0.0756,0.0945,-0.0276,-0.0356,-0.0248
1781765710754,-0.1566,0.0044,0.1271,-0.0216,-0.0234,-0.0144
1781765710774,-0.1207,0.0711,0.0761,-0.0144,-0.0063,-0.0103
1781765710794,-0.08,0.0331,0.0221,-0.0116,0.0046,-0.0121
1781765710814,-0.0383,-0.0379,0.0283,-0.0181,0.0001,-0.0097
1781765710835,0.0067,-0.0947,0.0611,-0.0246,-0.0103,-0.0116
1781765710853,0.0067,-0.0947,0.0611,-0.0246,-0.0103,-0.0116
1781765710874,0.0117,-0.0002,0.1011,-0.0184,-0.0058,-0.0226
1781765710894,0.0117,-0.0002,0.1011,-0.0184,-0.0058,-0.0226
1781765710915,-0.0541,-0.031,0.0744,-0.0158,-0.0017,-0.0229
1781765710934,-0.045,-0.0116,0.0412,-0.0206,-0.0015,-0.0188
1781765710954,0.0199,-0.0213,0.0426,-0.0216,-0.0037,-0.0137
1781765710974,0.0011,-0.0343,0.0583,-0.0139,0.0025,-0.0179
1781765710994,-0.1071,-0.0387,0.0654,-0.011,0.0203,-0.018
1781765711014,-0.1655,0.0501,0.0817,-0.0085,0.0247,-0.0154
1781765711034,-0.1008,0.0935,0.115,-0.0017,0.0332,-0.0182
1781765711053,-0.0801,0.0314,0.1672,0.003,0.0335,-0.0143
1781765711075,-0.1177,0.0599,0.1307,0.011,0.034,-0.0068
1781765711094,-0.0153,0.0513,0.1171,0.0165,0.0317,-0.0105
1781765711114,-0.0201,-0.0243,0.1771,0.0212,0.0296,-0.0125
1781765711135,-0.086,0.0036,0.1695,0.029,0.0343,-0.0081
1781765711154,-0.1,0.0288,0.1443,0.0328,0.0412,0.001
1781765711174,-0.0375,-0.0101,0.1524,0.0359,0.0433,0.0004
1781765711195,-0.0013,-0.0209,0.1764,0.0409,0.0489,-0.005
1781765711214,-0.0386,0.009,0.1503,0.0405,0.0604,-0.0114
1781765711234,-0.1016,-0.0106,0.1247,0.0407,0.0782,-0.0116
1781765711254,-0.1112,-0.0354,0.1195,0.0397,0.0913,-0.0134
1781765711275,-0.0755,-0.0422,0.1091,0.0359,0.1016,-0.0089
1781765711294,-0.0176,-0.0023,0.1026,0.0305,0.0947,-0.0044
1781765711314,0.0119,-0.0575,0.1286,0.0349,0.1059,-0.0141
1781765711334,-0.0332,-0.0098,0.1426,0.0449,0.1168,-0.0164
1781765711354,0.0116,-0.053,0.1079,0.0422,0.114,-0.0071
1781765711374,0.066,-0.0802,0.0564,0.0378,0.091,-0.0013
1781765711394,0.1844,-0.1035,0.0116,0.0304,0.063,0.0049
1781765711414,0.3118,-0.163,0.0287,0.015,0.0387,-0.0011
1781765711435,0.2757,-0.1743,0.0929,0.0024,0.0071,-0.0074
1781765711454,0.2434,-0.0761,0.084,0.0003,-0.0127,-0.0082
1781765711474,0.1677,-0.0881,0.0314,-0.0034,-0.0327,-0.0101
1781765711495,0.1376,-0.1398,-0.0079,-0.0056,-0.0418,-0.0138
1781765711514,0.1626,-0.0713,-0.0229,-0.0044,-0.0546,-0.0117
1781765711538,0.1377,-0.1165,-0.0561,-0.0144,-0.0561,-0.0121
1781765711554,0.1117,-0.1269,0.0296,-0.0217,-0.0682,-0.0148
1781765711575,-0.0292,-0.1124,0.0521,-0.0309,-0.0647,-0.0147
1781765711594,-0.0472,-0.0841,0.0006,-0.0426,-0.0619,-0.0114
1781765711614,-0.008,-0.1133,0.0155,-0.0443,-0.045,-0.0168
1781765711634,0.0407,-0.0734,0.0563,-0.041,-0.0344,-0.0205
1781765711654,0.0347,0.0421,0.06,-0.037,-0.0378,-0.0239
1781765711674,-0.005,0.0199,0.0188,-0.0432,-0.0404,-0.0139
1781765711694,0.0229,-0.0684,0.0234,-0.0495,-0.0424,-0.0152
1781765711714,0.0707,-0.0789,0.0807,-0.0499,-0.0426,-0.0219
1781765711735,0.1045,-0.0407,0.0581,-0.0538,-0.0344,-0.0202
1781765711754,0.1261,-0.0321,0.0737,-0.0653,-0.0357,-0.0278
1781765711774,0.0753,-0.0875,0.0861,-0.071,-0.082,-0.0187
1781765711794,-0.0192,-0.0948,0.0136,-0.0519,-0.1155,-0.0212
1781765711814,-0.0227,-0.1311,0.0108,-0.0364,-0.1327,-0.0214
1781765711834,-0.098,-0.0376,-0.0408,-0.0265,-0.1604,-0.0228
1781765711855,-0.2107,-0.1073,-0.0722,-0.0142,-0.1862,-0.0175
1781765711874,-0.1121,-0.1339,-0.0604,-0.0332,-0.1975,-0.0087
1781765711894,0.0919,-0.061,0.0897,-0.0562,-0.2022,-0.0114
1781765711914,0.1893,0.0048,0.1565,-0.0601,-0.1709,-0.0253
1781765711934,0.0207,-0.0207,0.0001,-0.0985,-0.0813,-0.0346
1781765711954,-0.1225,-0.0262,0.1049,-0.1253,-0.0304,-0.0428
1781765711974,-0.2749,0.3502,0.3604,-0.0882,-0.0301,-0.0347
1781765711993,-0.417,0.2701,0.5241,-0.0419,-0.0378,-0.0245
1781765712015,-0.2822,0.159,0.5877,-0.0082,-0.0331,-0.0175
1781765712036,-0.0364,0.1103,0.5017,0.0071,-0.0167,-0.0277
1781765712053,-0.0421,0.0802,0.3123,0.0056,-0.0044,-0.0276
1781765712074,-0.1921,0.0525,0.1794,0.0048,-0.0113,-0.0307
1781765712094,-0.34,0.0373,0.1347,0.0113,-0.0174,-0.0254
1781765712114,-0.4685,0.1389,0.1676,0.0133,-0.0012,-0.0152
1781765712134,-0.3684,0.1898,0.23,0.0196,0.0123,-0.0104
1781765712154,-0.2428,0.066,0.2323,0.0263,0.0458,-0.0167
1781765712174,-0.2233,0.0674,0.1499,0.0187,0.0858,-0.0171
1781765712194,-0.2222,0.1023,0.1434,0.0287,0.1054,-0.0239
1781765712215,-0.2253,0.05,0.2188,0.0432,0.0954,-0.0294
1781765712234,-0.2475,0.0822,0.2432,0.0448,0.1084,-0.0324
1781765712254,-0.1731,0.1319,0.239,0.0274,0.1192,-0.0241
1781765712273,-0.1107,0.0526,0.2111,0.0275,0.1129,-0.0243
1781765712294,-0.128,0.0302,0.1211,0.0422,0.1117,-0.0231
1781765712315,-0.0703,0.0413,-0.0209,0.038,0.1452,-0.0228
1781765712334,-0.0275,-0.066,0.0399,0.0396,0.1526,-0.023
1781765712354,0.0795,-0.1294,0.1697,0.0527,0.1342,-0.0289
1781765712375,0.1351,-0.0845,0.1099,0.0549,0.1126,-0.0332
1781765712394,0.1033,-0.0797,0.0158,0.0429,0.1135,-0.0338
1781765712414,0.0809,-0.0778,-0.0419,0.0329,0.1042,-0.0317
1781765712434,0.0746,-0.1444,-0.018,0.0229,0.0911,-0.0403
1781765712455,0.0418,-0.072,-0.058,0.0233,0.0944,-0.0473
1781765712474,-0.0062,-0.1362,-0.0642,0.0272,0.0891,-0.0474
1781765712495,0.1068,-0.1203,-0.0455,0.0289,0.0761,-0.0418
1781765712514,0.1602,-0.049,-0.0093,0.0285,0.0735,-0.0348
1781765712534,0.111,-0.0892,-0.0478,0.0121,0.0597,-0.0251
1781765712555,0.1464,-0.1229,0.0438,0.0046,0.0407,-0.0274
1781765712574,0.2027,-0.0962,0.1073,0.0127,0.045,-0.0292
1781765712594,0.2729,-0.0682,0.0577,0.008,0.0321,-0.0396
1781765712615,0.1443,-0.0771,0.032,-0.0039,0.0003,-0.0426
1781765712634,0.0665,-0.1159,-0.072,-0.0175,0.0052,-0.0422
1781765712655,0.067,-0.1238,-0.0064,-0.0143,-0.0013,-0.0367
1781765712674,0.0784,-0.0886,-0.0409,-0.0148,-0.0003,-0.035
1781765712694,0.1131,-0.0718,0.0169,-0.0173,0.0005,-0.0329
1781765712714,0.1521,-0.1186,-0.0179,-0.0253,0.0007,-0.0318
1781765712735,0.2107,-0.1588,-0.0305,-0.0387,-0.0086,-0.0296
1781765712755,0.306,-0.1492,-0.0208,-0.0341,-0.0251,-0.0296
1781765712774,0.3362,-0.1177,-0.0059,-0.0353,-0.0507,-0.0336
1781765712794,0.3092,-0.0856,0.0782,-0.0395,-0.0659,-0.0372
1781765712814,0.2004,-0.0998,0.138,-0.0425,-0.0846,-0.0416
1781765712834,0.0207,-0.0798,0.1366,-0.0481,-0.1019,-0.0434
1781765712855,0.0207,-0.0798,0.1366,-0.0481,-0.1019,-0.0434
1781765712874,-0.1479,0.0884,0.161,-0.0375,-0.0902,-0.0447
1781765712894,-0.1286,0.0565,0.1898,-0.0343,-0.081,-0.0379
1781765712914,-0.091,0.0479,0.2593,-0.0261,-0.0901,-0.0357
1781765712934,-0.1292,-0.0106,0.2441,-0.0261,-0.1054,-0.0233
1781765712954,-0.1292,-0.0106,0.2441,-0.0261,-0.1054,-0.0233
1781765712974,0.0759,-0.0336,0.281,-0.0126,-0.1167,-0.0242
1781765712995,-0.0093,-0.0036,0.2098,-0.0149,-0.1387,-0.0257
1781765713014,-0.1841,0.0844,0.2408,-0.0079,-0.1449,-0.0104
1781765713034,-0.1451,0.0417,0.3175,0.0061,-0.1291,-0.0046
1781765713054,-0.1451,0.0417,0.3175,0.0061,-0.1291,-0.0046
1781765713073,-0.2019,0.0875,0.3397,0.0184,-0.128,0.0098
1781765713094,-0.1721,0.1022,0.2918,0.0293,-0.1432,0.0091
1781765713114,-0.1502,0.102,0.1458,0.0292,-0.1047,0.0076
1781765713134,-0.1254,-0.0723,0.0153,0.0224,-0.0888,-0.0038
1781765713155,-0.1254,-0.0723,0.0153,0.0224,-0.0888,-0.0038
1781765713175,-0.0505,-0.1273,-0.0768,0.0032,-0.013,-0.0086
1781765713194,0.083,-0.1192,-0.0862,-0.0103,0.0102,-0.0176
1781765713214,0.0835,-0.1005,-0.0349,-0.0171,0.0273,-0.0241
1781765713234,-0.0064,-0.0659,-0.0568,-0.0191,0.0373,-0.0261
1781765713254,-0.0064,-0.0659,-0.0568,-0.0191,0.0373,-0.0261
1781765713274,0.1113,-0.0499,-0.0007,-0.0011,0.0174,-0.0193
1781765713294,0.1113,-0.0499,-0.0007,-0.0011,0.0174,-0.0193
1781765713314,0.1481,-0.0793,-0.0465,-0.0045,0.0129,-0.0155
1781765713334,0.0988,-0.0385,0.012,-0.0004,0.017,-0.0135
1781765713354,0.0305,-0.0116,0.0512,0.0042,0.0085,-0.0031
1781765713375,0.0182,-0.0035,0.0391,0.016,-0.0087,0.0037
1781765713394,0.0861,-0.0458,0.0012,0.0218,-0.0059,0.0039
1781765713414,0.1634,-0.0808,0.0638,0.0273,0.0179,-0.0071
1781765713434,0.0365,-0.0433,0.1033,0.0301,0.0185,-0.0139
1781765713454,-0.1839,-0.0006,0.0402,0.022,0.0172,-0.0044
1781765713474,-0.1466,-0.0237,-0.0293,0.0227,0.0212,0.0104
1781765713494,-0.0147,-0.0331,-0.0088,0.0292,0.0377,0.0067
1781765713514,0.1389,-0.0772,0.0723,0.041,0.0395,-0.0133
1781765713534,0.0163,-0.0414,0.1451,0.0338,0.0385,-0.0287
1781765713555,-0.245,0.0858,0.1497,0.0301,0.0433,-0.0224
1781765713573,-0.3428,0.0143,0.1033,0.0235,0.0442,-0.0111
1781765713594,-0.2034,-0.0214,0.0973,0.0193,0.0644,-0.0037
1781765713614,-0.022,-0.0333,0.0615,0.0123,0.0975,-0.0102
1781765713634,0.0002,-0.0073,0.1816,0.0114,0.1215,-0.0315
1781765713655,-0.1281,0.0209,0.2275,0.0197,0.1297,-0.0327
1781765713674,-0.1569,0.0005,0.1116,0.0194,0.1335,-0.0198
1781765713694,0.0245,-0.0687,0.0506,0.0123,0.1452,-0.012
1781765713714,0.127,-0.033,0.1056,0.0143,0.1337,-0.0318
1781765713734,0.0546,0.059,0.212,0.0251,0.1133,-0.0332
1781765713755,0.0092,-0.0703,0.0718,0.0122,0.1107,-0.0338
1781765713774,-0.0396,-0.097,0.0849,0.0138,0.105,-0.03
1781765713794,-0.1191,-0.0244,-0.0086,0.0188,0.1199,-0.0219
1781765713814,-0.065,0.0224,-0.0562,0.0082,0.1273,-0.0143
1781765713834,0.1274,-0.0661,0.0047,0.0077,0.1079,-0.0142
1781765713855,0.2897,-0.2079,0.008,0.0067,0.079,-0.0171
1781765713875,0.2744,-0.1495,0.006,0.007,0.0598,-0.025
1781765713894,0.2187,-0.0588,0.0544,0.0,0.0429,-0.0195
1781765713914,0.2036,-0.0461,0.0569,0.005,0.0068,-0.0155
1781765713934,0.1592,-0.0656,0.097,0.0081,-0.0234,-0.0217
1781765713955,0.1443,-0.11,0.1634,0.0125,-0.0432,-0.0278
1781765713974,0.0525,-0.045,0.1685,0.0153,-0.0394,-0.0329
1781765713994,-0.089,0.0488,0.1898,0.0227,-0.028,-0.029
1781765714013,-0.2465,0.0943,0.1199,0.0209,-0.0353,-0.0095
1781765714034,-0.1978,0.0465,0.1325,0.0204,-0.0325,0.0017
1781765714056,-0.0623,-0.0445,0.1124,0.0249,-0.0183,0.0082
1781765714074,0.151,-0.1294,0.0763,0.0189,-0.0243,-0.0019
1781765714095,0.1909,-0.0913,0.1265,0.0175,-0.0392,-0.018
1781765714113,0.0593,-0.0078,0.1149,0.0131,-0.057,-0.0197
1781765714135,-0.0153,0.0119,0.1061,0.0095,-0.0708,-0.0135
1781765714155,-0.0265,-0.0711,0.0853,0.0016,-0.0814,-0.0102
1781765714174,-0.0479,-0.0525,0.0831,0.0026,-0.0769,-0.0069
1781765714194,-0.0967,0.0233,0.1524,0.0041,-0.0721,-0.0026
1781765714214,-0.0942,0.0272,0.2009,0.0105,-0.0682,-0.0001
1781765714234,-0.1117,-0.0102,0.1944,0.0099,-0.0731,-0.0021
1781765714256,-0.1727,-0.0242,0.1471,0.0129,-0.0507,-0.0005
1781765714274,-0.0974,-0.0114,0.1793,0.0184,-0.026,0.0048
1781765714294,-0.0303,0.0227,0.1691,0.0242,0.005,0.0056
1781765714314,-0.0323,0.023,0.1644,0.0326,0.0154,0.0047
1781765714334,-0.0344,-0.0127,0.102,0.0385,0.0173,0.008
1781765714356,0.0779,-0.1089,0.0246,0.0305,0.023,0.0082
1781765714374,0.155,-0.1221,0.0614,0.0241,0.0237,-0.0039
1781765714394,0.0811,-0.1025,0.063,0.0129,0.021,-0.0056
1781765714414,-0.0142,-0.0445,0.077,0.0134,0.0321,-0.0094
1781765714435,-0.1101,-0.0581,0.0828,0.0155,0.055,-0.0099
1781765714456,-0.1213,-0.0347,0.156,0.0235,0.0741,-0.0157
1781765714475,-0.1095,0.0255,0.1765,0.0251,0.0857,-0.0122
1781765714494,-0.0539,0.0429,0.1491,0.0298,0.0834,-0.0021
1781765714514,-0.0042,0.0146,0.0861,0.0302,0.0709,0.0033
1781765714534,0.1017,-0.0493,0.0837,0.0374,0.0598,-0.0048
1781765714554,0.1125,-0.1123,0.0168,0.0323,0.0535,-0.0038
1781765714574,0.1253,-0.127,-0.0693,0.0175,0.0339,0.0009
1781765714594,0.2677,-0.1189,-0.0578,0.0125,0.0105,-0.0049
1781765714615,0.244,-0.1061,-0.0721,-0.0076,0.0066,-0.0072
1781765714634,0.1957,-0.1041,-0.0335,-0.0101,-0.0068,-0.0069
1781765714654,0.1614,-0.1132,0.0078,-0.01,-0.0151,-0.01
1781765714675,0.089,-0.089,0.0205,-0.0162,-0.0221,-0.0085
1781765714694,0.0699,-0.0717,0.0311,-0.0204,-0.0402,-0.0047
1781765714714,0.0759,-0.0702,0.0162,-0.023,-0.0536,0.0057
1781765714734,0.1008,-0.0858,0.0683,-0.0289,-0.0726,0.0008
1781765714754,0.1339,-0.0918,0.0578,-0.0325,-0.0735,-0.0094
1781765714774,0.0258,-0.0687,0.047,-0.0376,-0.0736,-0.0106
1781765714794,-0.0722,-0.0337,0.1082,-0.0357,-0.0792,-0.0044
1781765714814,-0.1439,0.0636,0.1334,-0.0261,-0.0796,0.0002
1781765714834,-0.1178,0.0748,0.1145,-0.016,-0.0658,0.0052
1781765714854,-0.0213,0.0173,0.1225,-0.0087,-0.0557,0.008
1781765714874,-0.0215,-0.0301,0.072,-0.0058,-0.0636,0.0075
1781765714894,-0.0009,-0.04,0.052,-0.0086,-0.0745,0.0078
1781765714914,-0.029,-0.0236,0.0733,-0.017,-0.0745,0.0011
1781765714934,-0.0827,-0.0027,0.1141,-0.0164,-0.0723,-0.0099
1781765714954,-0.1963,-0.0021,0.1304,-0.016,-0.0569,-0.0156
1781765714974,-0.2954,0.043,0.1218,-0.014,-0.0373,-0.0118
1781765714994,-0.2812,0.0781,0.1549,-0.0077,-0.01,-0.0141
1781765715014,-0.2786,0.0489,0.1957,0.0022,0.0204,-0.0191
1781765715034,-0.311,0.1191,0.184,0.0111,0.0402,-0.014
1781765715054,-0.2474,0.1275,0.1626,0.0269,0.0432,-0.0053
1781765715074,-0.1355,0.0393,0.1381,0.028,0.0431,-0.0052
1781765715094,-0.07,0.0059,0.1204,0.03,0.0508,-0.002
1781765715114,0.0119,-0.0174,0.0567,0.0333,0.0459,-0.0054
1781765715135,0.0531,-0.0754,0.0912,0.0369,0.0379,-0.0082
1781765715156,0.0033,-0.045,0.0955,0.0388,0.0212,-0.009
1781765715174,0.0095,-0.0212,0.0038,0.0279,0.0172,-0.0125
1781765715195,-0.0232,-0.0655,0.0214,0.0152,0.0237,-0.0133
1781765715213,-0.0922,-0.0526,0.0858,0.0151,0.035,-0.0142
1781765715235,-0.1079,-0.0125,0.1189,0.0191,0.0495,-0.0103
1781765715255,-0.0845,0.0524,0.1468,0.0285,0.0554,-0.0058
1781765715274,-0.0352,0.0293,0.1079,0.0293,0.06,-0.0031
1781765715294,0.0392,-0.0314,0.0973,0.0311,0.0513,-0.0087
1781765715314,0.048,-0.0339,0.0961,0.0338,0.0466,-0.0104
1781765715334,0.0712,-0.0436,0.0746,0.0292,0.0273,-0.0122
1781765715354,0.0893,-0.0943,0.0019,0.0197,0.0092,-0.0066
1781765715374,0.0927,-0.0992,-0.0393,0.0099,0.0061,-0.0053
1781765715394,0.0671,-0.0552,0.0373,0.0231,0.0037,-0.0062
1781765715414,0.0134,-0.0077,0.0697,0.0305,0.0063,-0.0041
1781765715434,0.0435,-0.0247,0.0909,0.0337,-0.0011,-0.005
1781765715454,0.0599,-0.0453,0.0731,0.0356,-0.0195,-0.0019
1781765715474,0.0757,-0.0381,0.0632,0.0349,-0.0228,-0.0042
1781765715494,0.0042,-0.0366,0.0922,0.0292,-0.0254,-0.0088
1781765715514,-0.0813,-0.0328,0.0864,0.023,-0.0228,-0.0024
1781765715534,-0.0918,-0.0125,0.0934,0.0257,-0.023,0.0024
1781765715554,-0.0648,-0.0145,0.1076,0.029,-0.0054,0.0002
1781765715574,-0.0345,-0.0545,0.0907,0.0262,0.0159,-0.0107
1781765715594,-0.0869,-0.0554,0.032,0.0199,0.025,-0.0101
1781765715614,-0.0574,0.0131,0.1121,0.024,0.0339,-0.0195
1781765715634,-0.1058,0.0112,0.1252,0.0267,0.0399,-0.0162
1781765715654,-0.0902,0.0097,0.0744,0.0235,0.0355,-0.0073
1781765715673,-0.0902,0.0097,0.0744,0.0235,0.0355,-0.0073
1781765715694,0.0501,-0.129,0.0001,0.0094,0.0343,-0.008
1781765715714,0.0501,-0.129,0.0001,0.0094,0.0343,-0.008
1781765715735,0.1422,-0.0684,0.0889,0.0112,0.0346,-0.0134
1781765715754,0.1311,-0.0677,0.1187,0.0143,0.0161,-0.0195
1781765715775,0.0169,-0.0233,0.103,0.0139,-0.0045,-0.0141
1781765715794,0.0169,-0.0233,0.103,0.0139,-0.0045,-0.0141
1781765715814,0.0134,-0.0503,0.0672,0.0027,-0.001,-0.0121
1781765715834,0.0436,-0.1006,0.0954,0.0,-0.0027,-0.0112
1781765715854,0.0267,-0.0851,0.1169,-0.0039,-0.0051,-0.0128
1781765715875,-0.0106,-0.012,0.0997,-0.0035,-0.0032,-0.0122
1781765715894,0.0018,-0.0323,0.1041,-0.0036,0.0021,-0.0082
1781765715914,0.0531,-0.0496,0.1616,-0.0025,0.0019,-0.0044
1781765715934,0.0788,-0.0273,0.1597,0.001,-0.0031,-0.0082
1781765715954,0.0255,-0.0471,0.1157,-0.0066,-0.0071,-0.0142
1781765715974,-0.0205,-0.0791,0.0878,-0.012,-0.0198,-0.0087
1781765715994,-0.0205,-0.0437,0.096,-0.0105,-0.0306,-0.003
1781765716014,0.0037,-0.0184,0.0745,-0.0119,-0.026,-0.0034
1781765716034,0.0035,-0.0067,0.111,-0.0081,-0.0141,-0.009
1781765716054,-0.0717,-0.0222,0.118,-0.0082,-0.0099,-0.0069
1781765716074,-0.1168,-0.0299,0.1336,-0.0067,-0.002,-0.0073
1781765716094,-0.1041,-0.0082,0.1353,-0.0004,0.0195,-0.0083
1781765716114,-0.1477,0.0218,0.0934,0.009,0.0341,-0.005
1781765716134,-0.1668,0.0396,0.1295,0.0122,0.0365,-0.0037
1781765716154,-0.137,0.0112,0.1042,0.0175,0.0497,-0.005
1781765716174,0.018,-0.0291,0.1045,0.0175,0.0497,-0.005
1781765716195,0.0983,-0.0225,0.0694,0.0061,0.0147,-0.0135
1781765716214,0.1441,-0.1499,0.0468,0.0061,0.0147,-0.0135
1781765716234,0.1107,-0.076,0.0956,0.0042,-0.0077,-0.0081
1781765716253,0.056,-0.0747,0.016,0.0042,-0.0077,-0.0081
1781765716274,0.1299,-0.0956,-0.0016,-0.0054,-0.0317,0.0007
1781765716295,0.2305,-0.0839,-0.0277,-0.0156,-0.0701,0.0001
1781765716314,0.2429,-0.1227,-0.0604,-0.0156,-0.0701,0.0001
1781765716334,0.2293,-0.1322,0.0377,-0.0194,-0.0753,-0.0098
1781765716354,0.0807,-0.0855,0.0203,-0.0314,-0.0706,-0.0159
1781765716374,-0.0271,-0.0281,0.0399,-0.0384,-0.0779,-0.0124
1781765716395,-0.1072,0.0263,0.0731,-0.0339,-0.0811,-0.0068
1781765716414,-0.1453,0.0351,0.1168,-0.0258,-0.0605,-0.0089
1781765716434,-0.189,-0.0006,0.1636,-0.0149,-0.0356,-0.0088
1781765716454,-0.2158,0.0491,0.1995,-0.0076,-0.0164,-0.0095
1781765716474,-0.1786,0.0718,0.1396,-0.0045,-0.0047,-0.0044
1781765716494,-0.1603,0.0581,0.1171,0.0008,0.0062,-0.0076
1781765716514,-0.1201,0.0566,0.1175,0.0146,0.0063,-0.0026
1781765716534,-0.077,0.0318,0.0764,0.0196,0.0057,-0.0021
1781765716554,-0.0608,-0.0248,0.0397,0.0207,0.0072,-0.0001
1781765716574,-0.0023,-0.0583,0.0145,0.0153,0.0065,-0.0041
1781765716594,-0.0269,-0.0259,0.0234,0.0121,-0.0032,-0.0009
1781765716614,-0.0361,-0.0387,-0.0064,0.0081,-0.0135,-0.0006
1781765716634,-0.0193,-0.0362,0.0171,0.0072,-0.0076,-0.0015
1781765716654,-0.0069,-0.0469,-0.0142,0.0092,-0.0048,-0.0007
1781765716674,-0.0027,-0.0465,0.0105,0.0122,0.0077,-0.0076
1781765716694,-0.0371,-0.0594,0.0659,0.0084,0.0164,-0.0152
1781765716715,-0.1535,0.0173,0.1075,0.0056,0.0225,-0.0197
1781765716734,-0.1755,0.0823,0.1564,0.0129,0.0308,-0.0198
1781765716754,-0.1951,0.1017,0.2158,0.0199,0.0333,-0.0212
1781765716774,-0.2418,0.026,0.2244,0.0285,0.0443,-0.0168
1781765716794,-0.2649,0.0665,0.1319,0.0352,0.0659,-0.0091
1781765716814,-0.1392,0.0774,0.1154,0.0358,0.0728,-0.0034
1781765716834,-0.0342,-0.0095,0.138,0.044,0.0632,-0.0092
1781765716854,0.0314,-0.0354,0.116,0.0447,0.0552,-0.015
1781765716874,0.0562,-0.0356,0.0931,0.0428,0.0511,-0.0209
1781765716894,-0.0371,-0.0284,0.0485,0.0395,0.0487,-0.0163
1781765716914,-0.0343,-0.0212,0.0387,0.0378,0.0397,-0.0071
1781765716934,-0.0074,-0.0645,0.0099,0.0269,0.0212,-0.0074
1781765716955,0.058,-0.0684,0.0492,0.0201,0.02,-0.0108
1781765716975,-0.032,-0.0404,0.0349,0.0136,0.0238,-0.0127
1781765716994,-0.0486,-0.0165,0.0671,0.0212,0.0304,-0.0091
1781765717014,-0.0027,-0.019,0.0698,0.0295,0.0335,-0.0075
1781765717034,0.0158,-0.0468,0.0558,0.0349,0.0375,-0.0077
1781765717054,0.0934,-0.0677,0.105,0.0303,0.0442,-0.0127
1781765717074,0.0092,0.0215,0.1531,0.0374,0.0494,-0.0193
1781765717094,-0.231,0.0078,0.0585,0.0446,0.0537,-0.0206
1781765717114,-0.2159,0.0189,0.0312,0.0526,0.0667,-0.0155
1781765717133,-0.036,0.0408,0.0236,0.053,0.0741,-0.0155
1781765717153,0.0542,0.0007,0.0322,0.0536,0.0708,-0.0245
1781765717175,0.0263,-0.0677,0.0621,0.0561,0.0564,-0.023
1781765717194,-0.0151,-0.1064,0.0038,0.0426,0.0544,-0.0145
1781765717214,0.0827,-0.1231,0.035,0.0288,0.0386,-0.0106
1781765717234,0.091,-0.0718,0.105,0.0188,0.041,-0.023
1781765717253,-0.032,-0.0212,0.2002,0.0227,0.0421,-0.0277
1781765717274,-0.1786,0.0925,0.1775,0.0328,0.0363,-0.0191
1781765717294,-0.0852,0.0204,0.1281,0.0361,0.0328,-0.0045
1781765717314,0.2015,-0.0769,0.0987,0.0306,0.0265,0.002
1781765717333,0.3742,-0.1232,0.145,0.0273,0.0055,-0.0002
1781765717354,0.3365,-0.0996,0.1314,0.0235,-0.0243,0.0009
1781765717375,0.2282,-0.1297,0.0496,0.0177,-0.0552,0.0075
1781765717394,0.2691,-0.1856,-0.0032,0.01,-0.0605,-0.0005
1781765717414,0.2292,-0.188,0.0501,0.0038,-0.0592,-0.0108
1781765717435,0.0405,-0.0514,0.0315,-0.0018,-0.0538,-0.0122
1781765717454,-0.1497,0.0002,-0.0732,-0.0124,-0.0451,-0.0038
1781765717475,-0.1202,-0.0666,-0.075,-0.0222,-0.0342,-0.0093
1781765717494,-0.0441,-0.0624,0.0031,-0.032,-0.018,-0.0203
1781765717515,-0.0705,-0.0498,0.0292,-0.0496,-0.0227,-0.0227
1781765717534,-0.0664,0.0343,0.1612,-0.0469,-0.062,-0.0109
1781765717554,-0.0655,0.0436,0.1106,-0.0292,-0.0857,0.0074
1781765717575,0.1282,-0.0182,0.1499,-0.0123,-0.0945,0.0157
1781765717594,0.2159,-0.0244,0.1627,0.0011,-0.117,0.01
1781765717614,0.1109,0.0078,0.093,0.0063,-0.1303,0.0069
1781765717634,-0.0661,0.0129,0.0332,0.0033,-0.1345,0.0073
1781765717654,-0.1415,-0.046,-0.0111,0.0024,-0.1333,0.0156
1781765717675,-0.0208,-0.1035,-0.0295,-0.0054,-0.1189,0.0097
1781765717694,0.0654,-0.1178,0.0064,-0.0174,-0.0952,-0.0061
1781765717714,-0.0045,-0.0797,-0.0203,-0.0306,-0.0849,-0.0206
1781765717734,-0.0738,-0.0097,0.0184,-0.0399,-0.0835,-0.0241
1781765717754,-0.134,-0.0538,0.0696,-0.0495,-0.0813,-0.0233
1781765717775,-0.1523,-0.0698,0.0823,-0.0657,-0.0841,-0.0232
1781765717794,-0.157,-0.0036,0.1428,-0.0644,-0.0764,-0.0334
1781765717814,-0.2731,0.063,0.1987,-0.0547,-0.0613,-0.0345
1781765717834,-0.4061,0.1625,0.2449,-0.0399,-0.0307,-0.0288
1781765717854,-0.3665,0.191,0.2994,-0.0217,0.003,-0.0235
1781765717875,-0.3714,0.1303,0.3146,-0.0064,0.0302,-0.025
1781765717894,-0.3295,0.1165,0.3348,0.0151,0.0383,-0.0224
1781765717914,-0.3157,0.0776,0.2697,0.0303,0.0603,-0.016
1781765717934,-0.2146,0.1342,0.2166,0.0427,0.0897,-0.0126
1781765717954,-0.1699,0.0299,0.1418,0.0557,0.1143,-0.0186
1781765717975,-0.1147,0.0223,0.089,0.0566,0.1074,-0.0164
1781765717994,0.0121,0.0122,0.018,0.0594,0.0944,-0.0055
1781765718014,0.1417,-0.0773,-0.0289,0.06,0.0748,-0.0059
1781765718034,0.2002,-0.1368,-0.0189,0.0599,0.0638,-0.0122
1781765718054,0.164,-0.0793,-0.0373,0.0617,0.0566,-0.0098
1781765718075,0.164,-0.0793,-0.0373,0.0643,0.0462,-0.0075
1781765718094,0.1008,-0.0688,-0.0613,0.0593,0.0328,0.0011
1781765718114,0.2333,-0.0934,-0.013,0.064,0.0248,0.0029
1781765718134,0.227,-0.0846,0.0253,0.065,0.0023,-0.0006
1781765718154,0.1408,-0.0747,0.0715,0.0776,-0.0254,0.0079
1781765718174,0.1408,-0.0747,0.0715,0.0866,-0.0395,0.0158
1781765718194,0.1651,-0.038,0.0052,0.086,-0.0672,0.0274
1781765718214,0.2587,-0.1167,-0.0376,0.076,-0.1142,0.0472
1781765718235,0.4599,-0.1886,-0.1237,0.0604,-0.166,0.0484
1781765718254,0.5202,-0.2789,-0.2037,0.0447,-0.1933,0.0352
1781765718276,0.5202,-0.2789,-0.2037,0.0447,-0.1933,0.0352
1781765718293,0.2275,-0.1617,-0.196,0.0155,-0.2053,0.0196
1781765718314,0.1708,-0.1939,-0.1845,-0.0099,-0.2148,0.013
1781765718334,0.1346,-0.2451,-0.1978,-0.0278,-0.2175,0.0023
1781765718355,0.0659,-0.264,-0.1695,-0.0493,-0.1984,-0.0099
1781765718376,0.0659,-0.264,-0.1695,-0.0493,-0.1984,-0.0099
1781765718394,-0.0357,-0.0285,0.0574,-0.0673,-0.1582,-0.0076
1781765718415,0.0503,-0.0139,0.0997,-0.0767,-0.1564,-0.0097
1781765718434,0.039,-0.0391,0.1623,-0.0839,-0.154,-0.0205
1781765718454,-0.0376,0.0067,0.2485,-0.0867,-0.1458,-0.0199
1781765718474,-0.1204,0.0738,0.2863,-0.0767,-0.1504,-0.0068
1781765718495,-0.1075,0.1009,0.3165,-0.0676,-0.1698,0.0037
1781765718514,-0.1075,0.1009,0.3165,-0.0598,-0.1784,0.0107
1781765718534,-0.1185,0.0618,0.3323,-0.0457,-0.1639,0.0135
1781765718554,-0.1185,0.0618,0.3323,-0.0354,-0.1411,0.0026
1781765718576,-0.1265,0.0651,0.3095,-0.0354,-0.1411,0.0026
1781765718594,-0.2434,0.0764,0.2571,-0.0322,-0.0996,-0.0056
1781765718614,-0.3766,0.0979,0.2803,-0.0261,-0.0642,-0.0046
1781765718634,-0.4887,0.1335,0.3237,-0.0261,-0.0642,-0.0046
1781765718655,-0.5262,0.1187,0.3176,-0.0023,0.0467,-0.0169
1781765718676,-0.5196,0.1211,0.3663,-0.0023,0.0467,-0.0169
1781765718695,-0.5921,0.1542,0.3539,0.027,0.1568,-0.0374
1781765718714,-0.68,0.2366,0.3838,0.027,0.1568,-0.0374
1781765718735,-0.8256,0.2579,0.3612,0.0437,0.2245,-0.0409
1781765718755,-0.7306,0.2093,0.3826,0.0684,0.2742,-0.0404
1781765718776,-0.5936,0.2074,0.368,0.0893,0.3219,-0.0457
1781765718794,-0.5324,0.2689,0.2751,0.1148,0.3668,-0.0496
1781765718814,-0.4943,0.2486,0.1967,0.1474,0.3947,-0.0458
1781765718835,-0.3804,0.1875,0.1052,0.1693,0.4095,-0.0343
1781765718854,-0.0979,0.1582,-0.0176,0.1898,0.3968,-0.0167
1781765718876,0.2519,0.0072,-0.1135,0.1922,0.3598,-0.012
1781765718894,0.4526,-0.17,-0.154,0.188,0.3139,-0.0202
1781765718914,0.497,-0.214,-0.1312,0.185,0.265,-0.0276
1781765718934,0.4287,-0.1769,-0.1967,0.1779,0.2291,-0.0272
1781765718954,0.2784,-0.1809,-0.3127,0.1558,0.1818,-0.022
1781765718974,0.1852,-0.1597,-0.2609,0.1391,0.1268,-0.0081
1781765718994,0.2099,-0.1171,-0.2086,0.1268,0.1099,-0.0079
1781765719014,0.2347,-0.178,-0.2058,0.1058,0.1045,-0.0154
1781765719034,0.2178,-0.2514,-0.1513,0.0915,0.0787,-0.0306
1781765719054,0.1765,-0.1576,-0.0926,0.0798,0.074,-0.0367
1781765719074,0.112,-0.0868,-0.0355,0.0665,0.0678,-0.0337
1781765719095,0.0665,-0.0653,0.0262,0.0548,0.0678,-0.0317
1781765719114,0.06,-0.0761,0.0741,0.0555,0.0598,-0.0326
1781765719134,0.1448,-0.0593,0.0625,0.0454,0.0467,-0.0286
1781765719154,0.2162,-0.0449,0.0194,0.0319,0.0106,-0.0209
1781765719176,0.2968,-0.1366,-0.0489,0.021,-0.0334,-0.0154
1781765719194,0.3827,-0.2415,-0.0396,0.0019,-0.0749,-0.0102
1781765719214,0.4429,-0.2309,0.0221,-0.0114,-0.1327,-0.0046
1781765719234,0.4768,-0.1986,0.0479,-0.0232,-0.1814,0.0038
1781765719255,0.4329,-0.1827,0.0216,-0.0306,-0.2188,0.0097
1781765719276,0.354,-0.1457,0.0494,-0.0287,-0.2255,0.0115
1781765719294,0.3035,-0.0923,0.0245,-0.0389,-0.236,0.0145
1781765719314,0.2198,-0.1286,-0.0078,-0.0553,-0.267,0.016
1781765719334,0.13,-0.1616,0.0209,-0.067,-0.2742,0.0183
1781765719355,0.0523,-0.1502,0.0807,-0.0796,-0.262,0.0143
1781765719376,0.0498,-0.0989,0.085,-0.0956,-0.2567,0.0075
1781765719394,0.0168,-0.0501,0.1283,-0.0913,-0.2567,0.0002
1781765719414,-0.0788,0.0245,0.091,-0.09,-0.2522,0.0029
1781765719434,-0.0873,0.0136,0.0679,-0.0986,-0.2288,0.0116
1781765719454,-0.0656,-0.0706,0.0902,-0.1027,-0.2094,0.0145
1781765719476,-0.035,-0.122,0.1538,-0.1016,-0.2345,0.0208
1781765719494,-0.0198,-0.0291,0.1639,-0.0938,-0.2427,0.0273
1781765719515,0.0858,-0.0141,0.0474,-0.0913,-0.2247,0.02
1781765719534,0.0807,-0.1018,0.0039,-0.0953,-0.212,0.0102
1781765719554,0.0377,-0.0563,0.0439,-0.0856,-0.2248,0.0055
1781765719575,0.041,0.0338,0.0124,-0.0798,-0.2259,0.0178
1781765719594,0.0813,-0.0414,-0.0015,-0.0838,-0.2278,0.025
1781765719614,0.1216,-0.0945,0.0236,-0.0912,-0.2499,0.0231
1781765719634,0.1163,-0.1242,0.0336,-0.0921,-0.2879,0.0219
1781765719654,0.146,-0.0845,-0.016,-0.1045,-0.309,0.0246
1781765719676,0.1766,-0.0637,0.0443,-0.1084,-0.3348,0.0337
1781765719694,0.1417,-0.0665,0.0656,-0.1101,-0.3568,0.0307
1781765719714,0.0236,-0.0443,0.1221,-0.1047,-0.3569,0.0221
1781765719734,-0.1405,-0.0091,0.1245,-0.0946,-0.338,0.0126
1781765719755,-0.2071,0.0025,0.1906,-0.0938,-0.3303,0.0117
1781765719774,-0.3159,0.0821,0.2468,-0.08,-0.2976,0.0143
1781765719794,-0.4268,0.0995,0.2271,-0.084,-0.2657,0.0125
1781765719814,-0.4929,0.0821,0.2582,-0.0791,-0.2079,-0.0013
1781765719834,-0.5329,0.1746,0.3012,-0.0624,-0.1344,-0.0109
1781765719854,-0.5735,0.2343,0.3992,-0.0479,-0.0789,-0.0091
1781765719874,-0.5879,0.2394,0.4385,-0.035,-0.0515,-0.0031
1781765719894,-0.5234,0.1478,0.4636,-0.0208,-0.0244,-0.0019
1781765719914,-0.4765,0.1011,0.5086,-0.0053,0.0295,-0.0156
1781765719934,-0.5831,0.1389,0.4483,0.0127,0.0796,-0.0195
1781765719954,-0.5895,0.2323,0.3934,0.0301,0.1157,-0.0182
1781765719974,-0.5451,0.2195,0.3206,0.0327,0.1721,-0.0132
1781765719994,-0.5159,0.0869,0.3718,0.0311,0.2212,-0.0212
1781765720014,-0.5166,0.1231,0.427,0.0357,0.2593,-0.0309
1781765720035,-0.5645,0.1359,0.3773,0.0505,0.3119,-0.0412
1781765720054,-0.5777,0.1705,0.3348,0.0664,0.3664,-0.0487
1781765720074,-0.5687,0.1876,0.3688,0.073,0.4075,-0.0497
1781765720094,-0.4729,0.204,0.3592,0.0834,0.4376,-0.051
1781765720114,-0.3519,0.2077,0.3751,0.0995,0.465,-0.0551
1781765720134,-0.3741,0.2236,0.3648,0.1212,0.4867,-0.0525
1781765720154,-0.4426,0.1618,0.3875,0.1552,0.5161,-0.0465
1781765720174,-0.3319,0.2163,0.37,0.1837,0.5432,-0.0429
1781765720194,-0.1419,0.223,0.2252,0.214,0.5354,-0.0421
1781765720214,0.1003,0.0979,0.0563,0.2299,0.4976,-0.0367
1781765720233,0.3046,-0.0922,-0.1275,0.2292,0.4453,-0.0255
1781765720254,0.5868,-0.276,-0.3191,0.2129,0.3581,-0.0098
1781765720274,0.8545,-0.38,-0.4621,0.1875,0.2643,0.007
1781765720295,1.0246,-0.4683,-0.5381,0.1534,0.1648,0.0233
1781765720314,1.2212,-0.5422,-0.5452,0.1221,0.0631,0.0249
1781765720334,1.3256,-0.4959,-0.5416,0.1045,-0.02,0.0157
1781765720354,1.3075,-0.5115,-0.5886,0.076,-0.0865,0.0067
1781765720374,1.148,-0.5866,-0.6304,0.038,-0.1569,-0.0018
1781765720394,0.9323,-0.5526,-0.626,-0.0083,-0.2213,-0.0021
1781765720414,0.7029,-0.5208,-0.6168,-0.0551,-0.2656,-0.0049
1781765720434,0.5798,-0.461,-0.5603,-0.0935,-0.2923,-0.002
1781765720454,0.5013,-0.4274,-0.4483,-0.1271,-0.3089,-0.0041
1781765720474,0.3949,-0.3609,-0.3792,-0.1463,-0.3149,-0.0051
1781765720495,0.343,-0.1695,-0.2233,-0.1694,-0.315,-0.0097
1781765720514,0.1703,-0.0886,0.0268,-0.181,-0.3215,-0.0173
1781765720534,-0.1043,-0.0458,0.1929,-0.184,-0.2996,-0.0306
1781765720555,-0.3811,0.0319,0.3791,-0.1865,-0.2817,-0.0268
1781765720574,-0.6604,0.2518,0.5853,-0.1607,-0.2395,-0.0191
1781765720594,-0.7344,0.3719,0.6053,-0.1301,-0.1793,-0.0164
1781765720614,-0.8063,0.4376,0.7311,-0.0923,-0.1158,-0.0275
1781765720634,-1.0223,0.4769,0.7899,-0.0445,-0.0464,-0.0245
1781765720654,-1.0209,0.4915,0.6893,-0.0002,0.0108,-0.0049
1781765720674,-0.7931,0.3535,0.5741,0.0225,0.0499,0.0117
1781765720694,-0.7931,0.3535,0.5741,0.0225,0.0499,0.0117
1781765720714,-0.2184,0.1286,0.3855,0.0582,0.0742,0.0195
1781765720734,-0.048,0.0567,0.2903,0.068,0.0803,0.0177
1781765720754,0.0961,-0.0566,0.1842,0.0687,0.0446,0.0217
1781765720774,0.2029,-0.1347,0.0483,0.0596,0.0121,0.0275
1781765720794,0.2029,-0.1347,0.0483,0.0596,0.0121,0.0275
1781765720814,0.4258,-0.142,-0.0535,0.0334,-0.0378,0.0315
1781765720834,0.5691,-0.261,-0.1262,0.0252,-0.0844,0.0288
1781765720854,0.5822,-0.2733,-0.1387,0.0092,-0.1192,0.0192
1781765720875,0.5021,-0.2574,-0.1047,-0.0115,-0.131,-0.0034
1781765720895,0.5021,-0.2574,-0.1047,-0.0115,-0.131,-0.0034
1781765720914,-0.0943,-0.1815,-0.0536,-0.0573,-0.1299,-0.0099
1781765720934,-0.0745,-0.0875,-0.0851,-0.0634,-0.1162,-0.0022
1781765720954,-0.0745,-0.0875,-0.0851,-0.053,-0.1062,-0.0014
1781765720974,0.1555,-0.0476,-0.0631,-0.0427,-0.1001,-0.003
1781765720995,0.2225,-0.0754,0.0091,-0.0427,-0.1001,-0.003
1781765721014,0.128,0.0016,0.1332,-0.0141,-0.0993,-0.0095
1781765721034,-0.0537,0.1687,0.144,-0.0047,-0.092,-0.0053
1781765721054,-0.2916,0.1468,-0.0088,-0.0149,-0.0881,0.0075
1781765721074,-0.3344,0.0307,-0.0297,-0.0313,-0.0708,0.0111
1781765721095,-0.3494,-0.0653,-0.0116,-0.0313,-0.0708,0.0111
1781765721114,-0.3875,0.0836,0.219,-0.0344,-0.0368,-0.0024
1781765721134,-0.6871,0.1895,0.3882,-0.0146,0.0149,-0.0094
1781765721154,-0.9738,0.2982,0.4882,0.0152,0.0744,-0.0017
1781765721174,-0.9371,0.3606,0.4426,0.043,0.1374,0.0163
1781765721195,-0.5813,0.3495,0.4718,0.0717,0.1857,0.0162
1781765721214,-0.2811,0.2451,0.415,0.0992,0.214,0.0046
1781765721235,-0.1622,0.1442,0.348,0.1184,0.2355,-0.0182
1781765721254,-0.2452,0.1262,0.2908,0.1382,0.2561,-0.0273
1781765721274,-0.3426,0.0508,0.1738,0.1442,0.2678,-0.0184
1781765721294,-0.2219,0.0441,0.0674,0.1279,0.2734,-0.0117
1781765721315,-0.1516,-0.0453,0.0785,0.1237,0.2684,-0.0162
1781765721334,-0.2316,-0.0933,0.0831,0.1118,0.2701,-0.0205
1781765721354,-0.2326,-0.004,0.1134,0.1079,0.2792,-0.0083
1781765721374,-0.0701,0.0068,0.1099,0.1035,0.2648,-0.0014
1781765721395,0.2012,-0.093,0.1134,0.0951,0.2363,-0.0089
1781765721414,0.3223,-0.1274,0.1429,0.0844,0.1937,-0.0238
1781765721434,0.3124,-0.073,0.1491,0.0884,0.1588,-0.025
1781765721454,0.2126,-0.0556,0.1036,0.093,0.1455,-0.0229
1781765721474,0.1468,-0.0767,0.0665,0.0902,0.1464,-0.0205
1781765721495,0.2012,-0.1799,0.0613,0.0746,0.1256,-0.0252
1781765721514,0.1754,-0.1798,0.0399,0.0612,0.1067,-0.0303
1781765721534,0.0729,-0.1253,-0.0996,0.0497,0.1095,-0.03
1781765721554,0.1185,-0.1118,-0.1423,0.0424,0.1265,-0.0339
1781765721574,0.1561,-0.1561,-0.0705,0.0313,0.1126,-0.0341
1781765721595,0.1659,-0.1397,-0.0248,0.0222,0.0823,-0.0294
1781765721614,0.2371,-0.1547,-0.0615,0.0059,0.064,-0.0285
1781765721634,0.3107,-0.2002,-0.0487,-0.005,0.0236,-0.0337
1781765721655,0.338,-0.2282,-0.094,-0.0197,-0.0065,-0.0316
1781765721674,0.3327,-0.1532,-0.0857,-0.0345,-0.0516,-0.0328
1781765721695,0.2595,-0.1226,-0.0587,-0.0544,-0.0941,-0.0294
1781765721714,0.1958,-0.1435,-0.0393,-0.0639,-0.1363,-0.0273
1781765721734,0.2101,-0.129,0.0696,-0.0647,-0.1556,-0.0304
1781765721754,0.0853,-0.0395,0.1088,-0.0664,-0.1575,-0.028
1781765721773,-0.0706,0.0512,0.1763,-0.0593,-0.1625,-0.0087
1781765721795,-0.007,0.1545,0.2488,-0.0344,-0.1796,0.0171
1781765721814,0.2683,0.0718,0.2654,-0.0216,-0.1917,0.032
1781765721834,0.448,-0.0381,0.3894,-0.0157,-0.2207,0.0468
1781765721853,0.4561,-0.0299,0.4782,-0.0059,-0.2663,0.0553
1781765721874,0.2909,0.0584,0.4646,0.0024,-0.2926,0.07
1781765721895,0.0946,-0.0374,0.536,0.0125,-0.2831,0.0867
1781765721914,0.1305,-0.1495,0.6158,0.0256,-0.2671,0.0868
1781765721935,0.2982,-0.2055,0.4582,0.0263,-0.2606,0.0838
1781765721954,0.3186,-0.2956,0.1339,0.0165,-0.2134,0.0734
1781765721974,0.2399,-0.3965,-0.121,0.0037,-0.1152,0.0599
1781765721995,0.1542,-0.4059,-0.2532,-0.0168,-0.0313,0.0458
1781765722014,0.1681,-0.3836,-0.2947,-0.0363,0.0124,0.0427
1781765722034,0.2205,-0.3769,-0.3993,-0.0686,0.038,0.0373
1781765722054,0.32,-0.2925,-0.3297,-0.0966,0.0328,0.0336
1781765722074,0.3496,-0.2157,-0.285,-0.122,-0.0043,0.0348
1781765722094,0.3471,-0.2533,-0.2909,-0.1539,-0.0528,0.031
1781765722114,0.3232,-0.2,-0.1819,-0.1746,-0.1096,0.0283
1781765722134,0.1564,-0.0697,-0.1193,-0.1847,-0.1609,0.0307
1781765722154,-0.0543,0.1129,-0.0788,-0.1771,-0.1873,0.0515
1781765722174,-0.1434,0.0964,-0.0822,-0.174,-0.1963,0.0627
1781765722195,0.1051,0.0188,0.1999,-0.1674,-0.3391,0.0854
1781765722214,0.0012,0.1968,0.1873,-0.1447,-0.3472,0.0809
1781765722234,-0.0191,0.0684,-0.0047,-0.1422,-0.315,0.0756
1781765722254,-0.097,0.0506,0.0904,-0.1425,-0.3075,0.0703
1781765722274,-0.1681,0.0741,0.1107,-0.1397,-0.3213,0.0774
1781765722295,-0.1744,0.1345,0.0492,-0.1535,-0.3436,0.0913
1781765722315,-0.1132,0.079,0.0335,-0.1704,-0.3701,0.1064
1781765722334,-0.0814,-0.0194,0.0814,-0.1884,-0.3896,0.1075
1781765722354,-0.06,-0.0063,0.2008,-0.1973,-0.3961,0.0969
1781765722375,-0.1959,0.1069,0.3075,-0.197,-0.4037,0.0824
1781765722395,-0.4936,0.2323,0.4112,-0.179,-0.4026,0.0799
1781765722414,-0.8568,0.3303,0.389,-0.1594,-0.3547,0.0847
1781765722434,-0.928,0.4809,0.3859,-0.1289,-0.2918,0.0857
1781765722455,-1.1499,0.5398,0.3474,-0.1062,-0.2014,0.0792
1781765722474,-1.3856,0.4612,0.4091,-0.0538,-0.0741,0.0541
1781765722495,-1.5682,0.4963,0.3472,0.0128,0.0506,0.0314
1781765722514,-1.4926,0.5926,0.2359,0.0611,0.1853,0.0098
1781765722534,-1.3467,0.5716,0.2181,0.0888,0.3049,-0.0035
1781765722554,-1.1727,0.4798,0.3196,0.1217,0.3975,-0.0173
1781765722574,-0.9345,0.501,0.2929,0.1354,0.4632,-0.0295
1781765722595,-0.7058,0.4232,0.342,0.1603,0.4998,-0.0453
1781765722614,-0.6683,0.1623,0.3098,0.176,0.5317,-0.0417
1781765722634,-0.5812,0.0368,0.2308,0.1842,0.56,-0.0304
1781765722655,-0.2752,0.0745,0.1464,0.1958,0.5611,-0.0347
1781765722674,0.059,-0.0731,0.0659,0.1784,0.4965,-0.0351
1781765722695,0.2287,-0.0549,0.2271,0.1536,0.4234,-0.0329
1781765722714,0.2596,-0.0656,0.3521,0.1724,0.3956,-0.0528
1781765722734,0.3497,-0.0626,0.3738,0.2019,0.392,-0.0887
1781765722754,0.2699,-0.0883,0.2399,0.2121,0.3973,-0.1185
1781765722774,0.1109,-0.1071,0.0882,0.1965,0.39,-0.1176
1781765722796,-0.0417,-0.1591,0.025,0.1725,0.3707,-0.1122
1781765722814,-0.0583,-0.0595,0.0427,0.1544,0.3519,-0.1159
1781765722834,-0.0898,-0.0698,0.0759,0.1479,0.343,-0.1046
1781765722853,-0.1722,-0.1258,0.1315,0.1419,0.3526,-0.0838
1781765722874,0.0325,0.0045,0.2319,0.1611,0.3705,-0.0746
1781765722896,0.4425,0.0591,0.236,0.1795,0.3688,-0.0852
1781765722914,0.6442,-0.0236,0.2261,0.1873,0.3465,-0.1015
1781765722935,0.6153,-0.2041,0.196,0.1945,0.2917,-0.1038
1781765722954,0.6052,-0.2823,-0.0058,0.176,0.1927,-0.075
1781765722974,0.7815,-0.4145,-0.2032,0.1132,0.0734,-0.0371
1781765722996,0.7815,-0.4145,-0.2032,0.0394,-0.0456,-0.0105
1781765723014,1.0736,-0.4078,-0.1452,-0.017,-0.1309,-0.0184
1781765723034,1.012,-0.3248,-0.0753,-0.0549,-0.1783,-0.038
1781765723054,0.6699,-0.3002,-0.0978,-0.084,-0.2161,-0.0519
1781765723074,0.3331,-0.2797,-0.1822,-0.1111,-0.2509,-0.057
1781765723096,0.3331,-0.2797,-0.1822,-0.1413,-0.2727,-0.0638
1781765723114,-0.1253,-0.1586,-0.0385,-0.1673,-0.2405,-0.0514
1781765723134,-0.4093,0.0473,0.1573,-0.1686,-0.199,-0.0438
1781765723154,-0.5779,0.1753,0.2859,-0.1545,-0.1729,-0.0384
1781765723173,-0.5549,0.1241,0.3897,-0.1387,-0.1426,-0.0321
1781765723194,-0.5571,0.1765,0.4104,-0.1204,-0.0926,-0.0376
1781765723215,-0.419,0.2336,0.3998,-0.0895,-0.0755,-0.0355
1781765723234,-0.1756,0.2272,0.3505,-0.0707,-0.1075,-0.0054
1781765723254,-0.0217,0.0873,0.25,-0.052,-0.1029,0.018
1781765723274,0.1972,-0.0747,0.1042,-0.0319,-0.1269,0.0152
1781765723294,0.1972,-0.0747,0.1042,0.0165,-0.1318,-0.001
1781765723314,0.4063,-0.2888,-0.2016,0.0381,-0.2052,0.0298
1781765723334,0.7304,-0.3615,-0.3866,0.0479,-0.238,0.0581
1781765723354,0.7304,-0.3615,-0.3866,0.0337,-0.2519,0.0678
1781765723374,0.9825,-0.3469,-0.6021,0.0028,-0.2334,0.0763
1781765723394,0.7161,-0.5386,-0.5296,-0.0427,-0.2499,0.0751
1781765723414,0.7161,-0.5386,-0.5296,-0.0533,-0.2294,0.0692
1781765723434,0.6171,-0.5709,-0.4733,-0.0478,-0.1931,0.0493
1781765723454,0.5826,-0.5861,-0.5454,-0.0475,-0.1338,0.0173
1781765723474,0.6021,-0.56,-0.6007,-0.058,-0.0512,-0.0132
1781765723494,0.4932,-0.5315,-0.602,-0.0717,-0.0116,-0.0243
1781765723514,0.3078,-0.4101,-0.4249,-0.0864,-0.0098,-0.0052
1781765723534,0.0805,-0.227,-0.2911,-0.1011,-0.07,0.0237
1781765723555,-0.0109,-0.0831,-0.2045,-0.1301,-0.1412,0.0406
1781765723574,0.0713,-0.0365,-0.1354,-0.1301,-0.1412,0.0406
1781765723595,0.2431,0.0034,-0.0295,-0.1659,-0.243,0.0258
1781765723614,0.2075,-0.0179,0.1238,-0.1848,-0.3057,-0.0035
1781765723635,-0.0962,0.0169,0.2092,-0.1729,-0.2755,-0.0461
1781765723654,-0.5564,0.2379,0.2761,-0.1438,-0.1961,-0.0694
1781765723674,-1.0401,0.4657,0.399,-0.1019,-0.0866,-0.0685
1781765723693,-1.5236,0.549,0.4898,-0.0727,-0.024,-0.0395
1781765723714,-1.519,0.5674,0.6578,-0.0301,0.0244,-0.0243
1781765723734,-1.2796,0.6912,0.5848,0.0286,0.1356,-0.0179
1781765723755,-0.9432,0.7293,0.3944,0.0821,0.278,-0.0127
1781765723774,-0.6558,0.5506,0.3041,0.1185,0.3628,-0.0193
1781765723794,-0.5584,0.1937,0.3401,0.1246,0.3222,-0.0125
1781765723814,-0.3948,0.2155,0.427,0.1374,0.2396,0.0117
1781765723834,-0.1558,0.0645,0.2379,0.1366,0.2226,0.0011
1781765723854,-0.0505,-0.0134,0.1685,0.1316,0.2599,-0.0281
1781765723874,-0.1795,-0.1178,0.1555,0.1257,0.2221,-0.0434
1781765723894,-0.0709,0.0325,0.0521,0.1075,0.1739,-0.0483
1781765723914,0.0347,0.1051,0.0186,0.094,0.1788,-0.06
1781765723934,-0.0203,-0.0314,0.1512,0.0963,0.1835,-0.0652
1781765723955,-0.1576,-0.0262,0.2207,0.0949,0.1387,-0.0506
1781765723974,-0.2346,0.0508,0.1951,0.0832,0.1057,-0.0254
1781765723994,-0.1062,0.1275,0.1186,0.07,0.1066,-0.0034
1781765724014,-0.0403,0.0545,0.1006,0.0706,0.1088,0.0101
1781765724034,0.0249,-0.0435,0.0721,0.0639,0.0615,0.0121
1781765724055,0.2311,-0.0762,0.0101,0.0549,0.0162,-0.0088
1781765724074,0.2818,-0.1533,0.0079,0.0452,-0.0046,-0.0307
1781765724094,0.1814,-0.167,-0.0009,0.0329,-0.0402,-0.0488
1781765724114,0.1351,-0.1139,0.0154,0.0106,-0.0825,-0.058
1781765724134,0.0793,-0.1495,0.0931,-0.0127,-0.1117,-0.061
1781765724154,-0.0252,-0.1015,0.1974,-0.0154,-0.1203,-0.0491
1781765724174,-0.1424,0.1133,0.2189,-0.0082,-0.1042,-0.0394
1781765724194,-0.2692,0.2728,0.2317,0.002,-0.0853,-0.0316
1781765724214,-0.2541,0.1617,0.3653,0.0021,-0.0905,-0.0263
1781765724235,-0.1526,0.0305,0.5349,0.0003,-0.0901,-0.0195
1781765724254,-0.1053,0.0251,0.484,0.0178,-0.0756,-0.0144
1781765724274,-0.089,0.1466,0.2882,0.033,-0.039,-0.0142
1781765724295,-0.0681,0.1107,0.1269,0.0249,-0.0322,-0.0175
1781765724314,-0.1039,0.0108,0.2031,0.0058,-0.0322,-0.0213
1781765724334,-0.173,-0.0383,0.2509,-0.0014,-0.0501,-0.0315
1781765724354,-0.2469,0.0773,0.3095,-0.0056,-0.072,-0.0045
1781765724374,-0.1628,0.1873,0.2539,-0.0048,-0.0652,0.0223
1781765724394,0.0327,0.0635,0.2074,-0.0349,-0.0412,0.029
1781765724414,-0.0804,-0.1816,0.3038,-0.0416,-0.0232,0.0178
1781765724434,-0.079,-0.1081,0.303,-0.0111,-0.0704,-0.0068
1781765724455,-0.1221,0.0271,0.2164,0.0321,-0.0492,-0.0059
1781765724474,0.0187,0.1733,0.1546,0.0742,0.037,0.0021
1781765724494,0.0641,0.1887,0.134,0.1007,0.06,0.0448
1781765724514,0.0855,0.0051,0.1037,0.1062,-0.0361,0.0976
1781765724534,0.3726,-0.1599,-0.1722,0.0804,-0.187,0.1429
1781765724554,0.8072,-0.3938,-0.4426,0.0369,-0.2466,0.1368
1781765724574,1.0676,-0.6664,-0.4572,0.0297,-0.2372,0.0988
1781765724594,0.9645,-0.8589,-0.576,0.0032,-0.24,0.0663
1781765724614,0.8188,-0.8885,-0.8198,-0.0508,-0.2165,0.0322
1781765724634,0.811,-0.6785,-0.8325,-0.0983,-0.1231,0.0021
1781765724654,0.7238,-0.5939,-0.6025,-0.1304,-0.0796,-0.0408
1781765724674,0.4395,-0.4391,-0.2443,-0.1047,-0.0365,-0.0851
1781765724694,0.088,-0.1837,-0.2025,-0.0629,0.0127,-0.1109
1781765724714,-0.1236,0.0553,-0.2141,-0.0386,0.0749,-0.103
1781765724734,-0.2821,0.1705,-0.0893,-0.0392,0.121,-0.085
1781765724755,-0.4189,0.2159,0.0402,-0.0485,0.0977,-0.0544
1781765724774,-0.5105,0.2094,0.1215,-0.0589,0.0112,-0.0237
1781765724794,-0.5009,0.199,0.2122,-0.0752,-0.0235,-0.0004
1781765724815,-0.431,0.1802,0.321,-0.093,-0.0428,0.0133
1781765724834,-0.3163,0.253,0.4586,-0.1092,-0.0609,-0.003
1781765724854,-0.2844,0.2808,0.5908,-0.1017,-0.0591,-0.0232
1781765724874,-0.5155,0.2852,0.617,-0.0882,-0.0272,-0.028
1781765724894,-0.6706,0.4207,0.6689,-0.0499,0.0088,-0.0303
1781765724915,-0.5703,0.4537,0.6604,-0.005,0.0196,-0.0391
1781765724934,-0.6013,0.3774,0.5256,0.0189,0.0368,-0.0394
1781765724954,-0.7324,0.2661,0.5264,0.0356,0.0478,-0.023
1781765724975,-0.7165,0.3061,0.3784,0.044,0.0179,0.0064
1781765724994,-0.5252,0.3274,0.193,0.0561,0.0019,0.0308
1781765725014,-0.2312,0.221,0.0955,0.0674,-0.0109,0.0427
1781765725034,-0.0998,0.0143,0.0347,0.07,-0.0211,0.0564
1781765725054,-0.0066,-0.1116,-0.1473,0.0723,-0.0645,0.0665
1781765725074,0.2081,-0.2033,-0.3693,0.0676,-0.0806,0.076
1781765725094,0.4666,-0.3744,-0.5238,0.0552,-0.0603,0.0596
1781765725114,0.6327,-0.5074,-0.5755,0.0425,-0.0139,0.0279
1781765725134,0.65,-0.5819,-0.5763,0.0289,0.0348,-0.0134
1781765725154,0.4831,-0.5458,-0.5207,0.013,0.083,-0.0484
1781765725174,0.256,-0.4012,-0.4015,0.0023,0.1252,-0.0655
1781765725194,0.0518,-0.1878,-0.2129,0.0013,0.1507,-0.0756
1781765725214,-0.0916,-0.0643,-0.0494,0.0025,0.168,-0.0775
1781765725234,-0.2308,0.0526,0.099,0.002,0.166,-0.0735
1781765725254,-0.3795,0.1541,0.2033,0.0061,0.1472,-0.0623
1781765725274,-0.4555,0.2027,0.286,0.0123,0.1317,-0.0473
1781765725294,-0.4179,0.2568,0.3449,0.0181,0.1249,-0.0357
1781765725314,-0.4179,0.2568,0.3449,0.0315,0.1176,-0.0246
1781765725335,-0.2934,0.1984,0.3601,0.0432,0.1016,-0.0173
1781765725354,-0.1659,0.1953,0.3246,0.0518,0.0876,-0.0167
1781765725374,-0.0905,0.1308,0.2761,0.0608,0.0805,-0.0159
1781765725394,-0.066,0.0758,0.2269,0.0706,0.0758,-0.0137
1781765725414,-0.066,0.0758,0.2269,0.0706,0.0758,-0.0137
1781765725435,0.0065,-0.0303,0.0508,0.0629,0.0404,-0.0013
1781765725454,0.0865,-0.1038,-0.0003,0.0545,0.0226,0.0019
1781765725474,0.1167,-0.1628,-0.0556,0.044,0.0181,0.0007
1781765725495,0.1521,-0.165,-0.0784,0.0307,0.0211,0.0033
1781765725515,0.1521,-0.165,-0.0784,0.0307,0.0211,0.0033
1781765725534,0.2259,-0.1921,-0.0564,0.0071,0.0256,0.0096
1781765725555,0.2334,-0.2036,0.0008,0.0011,0.0184,0.0151
1781765725574,0.3126,-0.1484,0.0447,-0.0052,-0.0037,0.0178
1781765725594,0.338,-0.0909,0.1017,-0.0014,-0.0109,0.0172
1781765725615,0.338,-0.0909,0.1017,-0.0014,-0.0109,0.0172
1781765725634,0.2169,-0.0965,0.1351,0.011,-0.0139,0.0093
1781765725654,0.1153,-0.064,0.1084,0.0091,-0.0282,0.0083
1781765725674,0.0694,-0.0753,0.1123,0.0009,-0.0345,0.0024
1781765725694,-0.0213,-0.0591,0.1467,-0.0027,-0.0336,0.0053
1781765725714,-0.0919,-0.005,0.1425,-0.0063,-0.0304,0.0081
1781765725734,-0.1313,0.0493,0.1218,-0.0034,-0.0316,0.0142
1781765725755,-0.0893,-0.0764,0.1133,-0.0162,-0.0405,0.0133
1781765725774,-0.1075,0.0358,0.1265,-0.0123,-0.0332,0.0061
1781765725794,-0.1355,-0.0084,0.1428,-0.0064,-0.0217,0.0004
1781765725815,-0.1355,-0.0084,0.1428,-0.0064,-0.0217,0.0004
1781765725834,-0.0838,0.0269,0.0767,-0.0102,-0.019,0.0103
1781765725854,-0.0838,0.0269,0.0767,-0.0121,-0.0268,0.0174
1781765725874,-0.0323,0.0275,0.0235,-0.0142,-0.0307,0.0191
1781765725894,0.016,-0.0444,0.0315,-0.0178,-0.0446,0.0115
1781765725915,0.0525,-0.0901,0.0399,-0.0178,-0.0446,0.0115
1781765725934,0.0643,-0.0793,0.0343,-0.0237,-0.0541,0.0025
1781765725954,0.0657,-0.1098,0.0447,-0.0237,-0.0541,0.0025
1781765725975,0.0237,-0.0876,0.0711,-0.0264,-0.0625,-0.0033
1781765725994,0.028,-0.0802,0.063,-0.0264,-0.0625,-0.0033
1781765726015,0.0226,-0.0369,0.0038,-0.0333,-0.071,0.0039
1781765726034,0.0396,0.0306,0.0235,-0.0333,-0.071,0.0039
1781765726054,-0.069,0.1286,0.0277,-0.02,-0.0697,0.015
1781765726074,0.0665,-0.1627,0.0389,-0.0424,-0.1022,0.0092
1781765726094,0.021,-0.2157,0.1268,-0.0535,-0.1115,0.0248
1781765726115,0.2129,0.0717,0.1773,-0.057,-0.0805,-0.0012
1781765726134,0.0449,-0.002,0.2047,-0.042,-0.0847,-0.0137
1781765726155,-0.076,0.0005,0.174,-0.0297,-0.0868,-0.0322
1781765726174,-0.2801,0.0114,0.1523,-0.0316,-0.0826,-0.0266
1781765726194,-0.3669,0.0753,0.1543,-0.0418,-0.0744,-0.0133
1781765726215,-0.3751,0.1853,0.1385,-0.0442,-0.0658,-0.0081
1781765726233,-0.3144,0.122,0.157,-0.0377,-0.064,-0.011
1781765726254,-0.3179,0.1688,0.1607,-0.0245,-0.0439,-0.0082
1781765726274,-0.3479,0.1078,0.0829,-0.0161,-0.033,-0.002
1781765726294,-0.2469,0.0933,0.0944,-0.0024,-0.0188,0.0009
1781765726315,-0.1407,-0.0082,0.0503,0.0084,-0.0141,-0.0133
1781765726334,-0.1038,0.0375,0.0311,0.0217,0.0112,-0.02
1781765726355,-0.152,0.0766,0.0014,0.0243,0.0346,-0.0205
1781765726374,-0.1531,0.0686,-0.0591,0.0236,0.0389,-0.0146
1781765726394,-0.1685,-0.0686,-0.0851,0.0242,0.0319,-0.01
1781765726415,-0.0714,-0.1343,-0.1064,0.0235,0.0136,-0.0171
1781765726434,0.0305,-0.0753,-0.1582,0.0268,0.0142,-0.0199
1781765726455,0.0693,0.0112,-0.177,0.033,0.0398,-0.0299
1781765726474,0.0896,-0.1347,-0.1247,0.0223,0.0303,-0.0516
1781765726494,-0.0978,-0.3665,0.0411,0.0056,0.0324,-0.0636
1781765726515,-0.2455,-0.011,0.0427,-0.0128,0.0512,-0.0496
1781765726534,-0.0084,-0.0369,0.1034,-0.0265,0.0401,-0.0293
1781765726554,0.0411,0.1934,0.0763,-0.0123,0.038,-0.0175
1781765726574,0.0202,0.1083,0.0048,-0.0085,0.014,-0.0096
1781765726595,0.0507,0.0339,0.1562,-0.0021,0.0171,0.002
1781765726615,0.0535,-0.0363,0.2339,0.0038,0.0179,0.0025
1781765726634,0.0884,-0.0291,0.3211,0.0073,0.022,-0.0085
1781765726654,0.0367,-0.0059,0.35,0.0167,-0.0034,-0.0087
1781765726674,0.0712,0.0344,0.2741,0.0202,-0.0308,-0.0078
1781765726695,-0.0011,0.0372,0.1079,0.0277,-0.0278,-0.0086
1781765726715,0.0198,0.0323,0.0091,0.0243,-0.0154,-0.0221
1781765726734,-0.2029,-0.0951,0.0041,0.0186,-0.0014,-0.0244
1781765726755,-0.2957,-0.0438,0.0551,0.016,0.0057,-0.0123
1781765726774,-0.2141,0.0312,0.0021,0.0138,0.0098,0.0014
1781765726794,-0.0492,0.0169,-0.0276,0.0155,0.0127,-0.0008
1781765726815,0.012,-0.0295,-0.0488,0.0226,0.0093,-0.0028
1781765726835,0.0214,-0.0655,-0.0706,0.0221,0.0127,0.0013
1781765726854,0.0882,-0.0894,-0.0683,0.0175,0.0155,-0.0032
1781765726874,0.1085,-0.0689,0.0121,0.0199,0.0189,-0.0124
1781765726894,0.0759,-0.3061,0.0696,0.0036,-0.0142,-0.0271
1781765726915,0.1524,-0.1677,0.1777,-0.007,-0.0128,-0.0492
1781765726935,-0.0231,-0.0726,0.0843,-0.0123,-0.0054,-0.0591
1781765726954,-0.1851,0.1757,0.0401,-0.0101,0.0108,-0.041
1781765726974,-0.2729,0.1935,0.0552,-0.0012,0.007,-0.0155
1781765726994,-0.2426,0.2524,0.0978,0.0177,0.0166,0.0087
1781765727015,-0.1797,0.1473,0.0629,0.0261,0.0159,0.0225
1781765727035,-0.0454,0.2139,0.1608,0.0376,0.0323,0.0336
1781765727054,0.024,-0.0882,0.1197,0.0269,0.0279,0.0275
1781765727074,0.0942,-0.1719,0.2297,0.0238,0.0179,0.0132
1781765727095,0.0516,-0.1693,0.1954,0.0263,0.0013,0.0012
1781765727114,0.072,-0.0971,0.0476,0.018,-0.0135,-0.0015
1781765727134,0.0913,-0.0555,-0.0214,0.0101,-0.0202,0.0031
1781765727154,0.0823,-0.0545,-0.0365,0.006,-0.0237,0.0033
1781765727174,0.0651,-0.1153,-0.0095,0.0035,-0.0259,0.0059
1781765727194,0.0357,-0.0915,-0.0023,0.003,-0.0186,0.0102
1781765727215,0.0646,-0.0823,0.0557,-0.0031,-0.0181,-0.0042
1781765727235,-0.0134,-0.1343,0.1159,-0.0059,-0.0185,-0.0192
1781765727254,-0.1108,-0.068,0.1059,-0.0125,-0.0245,-0.0214
1781765727274,-0.0796,-0.0061,0.0259,-0.0161,-0.0371,-0.0115
1781765727294,-0.0357,0.0796,-0.0043,-0.0016,-0.0272,-0.0049
1781765727315,-0.0358,0.0099,-0.0351,-0.0057,-0.0334,-0.0171
1781765727334,-0.0618,-0.2774,0.0919,-0.0182,-0.0308,-0.0364
1781765727354,-0.1761,-0.0828,0.2101,-0.0215,-0.0237,-0.0473
1781765727375,-0.2583,0.2185,0.1509,-0.0073,0.0021,-0.0297
1781765727394,-0.3586,0.3438,0.0093,0.0019,0.0016,-0.0018
1781765727415,-0.1602,0.0725,0.0012,-0.0009,-0.0145,0.0067
1781765727434,-0.047,-0.0523,0.0686,-0.0021,-0.0104,0.0062
1781765727454,0.0404,-0.0157,0.1276,0.0102,0.0132,0.0005
1781765727475,0.0354,0.026,0.1365,0.0199,0.0132,-0.0082
1781765727494,0.0248,0.0229,0.1285,0.0298,0.0128,-0.0055
1781765727516,-0.0259,-0.0707,0.0806,0.0273,-0.004,-0.0055
1781765727534,-0.0122,-0.1141,0.003,0.0166,-0.0122,0.0014
1781765727555,0.0162,-0.0743,-0.0725,0.0097,-0.0126,-0.0039
1781765727573,0.0137,-0.0553,-0.07,0.0108,-0.0016,-0.0049
1781765727595,-0.0391,-0.0516,-0.0053,0.013,0.0158,-0.0102
1781765727616,-0.1022,-0.0395,0.0658,0.0152,0.0192,-0.0126
1781765727634,-0.184,-0.0483,0.0784,0.0065,0.0112,-0.0086
1781765727654,-0.052,-0.0399,0.0439,-0.0052,-0.0058,0.0086
1781765727675,0.1965,-0.0016,0.0158,-0.0069,-0.0218,0.0031
1781765727694,0.215,-0.0519,0.0383,0.0082,-0.0154,-0.0264
1781765727716,-0.0428,-0.0065,0.1189,0.025,0.0018,-0.0491
1781765727734,-0.3772,0.0741,0.1626,0.0146,0.0246,-0.0446
1781765727754,-0.4441,0.1217,0.1803,0.0015,0.0278,-0.0314
1781765727775,-0.2635,0.075,0.1753,0.0097,0.0159,-0.0275
1781765727794,-0.2306,0.1357,0.0282,0.0249,0.0251,-0.0293
1781765727816,-0.222,0.0911,-0.0604,0.0301,0.0392,-0.0161
1781765727834,-0.1781,0.0757,-0.0261,0.0341,0.047,-0.005
1781765727854,-0.0866,0.057,0.0313,0.0418,0.0404,0.004
1781765727875,0.0302,-0.0071,0.0492,0.0394,0.0232,0.0095
1781765727894,0.1277,-0.1377,0.065,0.0281,0.0094,0.0037
1781765727914,0.1455,-0.2063,0.0486,0.0239,0.0035,-0.01
1781765727934,0.0977,-0.1903,-0.0085,0.0217,0.0156,-0.0219
1781765727955,0.0381,-0.095,-0.0012,0.0196,0.0348,-0.0279
1781765727974,-0.0764,-0.0344,0.0421,0.0177,0.0362,-0.0256
1781765727995,-0.1008,0.0409,0.103,0.013,0.0375,-0.0218
1781765728016,-0.1008,0.0409,0.103,0.0209,0.0416,-0.0105
1781765728034,-0.0208,0.0607,0.156,0.0277,0.0464,-0.0065
1781765728054,-0.0163,0.0355,0.1464,0.041,0.0363,-0.0067
1781765728074,0.0045,0.0488,0.1018,0.0478,0.0334,0.0013
1781765728094,0.0469,0.0111,0.0569,0.0471,0.0241,0.0028
1781765728115,0.0469,0.0111,0.0569,0.0471,0.0241,0.0028
1781765728134,0.0188,-0.0903,0.0633,0.0409,0.0078,0.002
1781765728154,-0.0011,-0.1023,0.0084,0.0349,0.0111,-0.0012
1781765728174,0.003,-0.091,-0.0346,0.0287,0.0143,-0.0027
1781765728194,-0.0186,-0.0622,-0.0341,0.0233,0.0128,-0.0003
1781765728214,-0.0589,-0.045,-0.0302,0.0158,0.016,0.0013
1781765728234,-0.0655,-0.0366,-0.0018,0.0117,0.0114,-0.003
1781765728254,-0.0611,-0.0238,0.0541,0.0136,0.0173,-0.0083
1781765728275,-0.0154,-0.0175,0.0874,0.016,0.0271,-0.017
1781765728294,-0.0154,-0.0175,0.0874,0.0128,0.0315,-0.0284
1781765728314,-0.0557,-0.0899,0.1094,0.0116,0.0177,-0.0313
1781765728334,-0.1355,-0.0562,0.1366,0.0154,0.0051,-0.0194
1781765728354,-0.217,0.0639,0.0571,0.0167,0.0109,-0.0073
1781765728374,-0.1424,0.1109,0.0133,0.0181,0.0175,-0.0016
1781765728394,-0.0801,0.0648,0.0316,0.0181,0.0175,-0.0016
1781765728414,-0.0419,-0.0138,0.0403,0.0194,0.0223,0.0072
1781765728434,-0.012,-0.0822,0.0807,0.0194,0.0223,0.0072
1781765728454,0.0536,-0.0725,0.1005,0.0205,0.0205,0.0061
1781765728474,0.1372,-0.0781,0.0956,0.0143,0.0128,-0.0025
1781765728494,0.1803,-0.132,0.0998,0.0084,0.0038,-0.008
1781765728516,0.162,-0.1267,0.1147,0.0027,-0.0102,-0.0061
1781765728534,0.1133,-0.0762,0.0918,-0.0054,-0.0245,-0.0051
1781765728554,0.0923,-0.0591,0.1112,-0.0101,-0.0337,-0.0018
1781765728574,0.0698,-0.0649,0.1193,-0.0018,-0.0347,-0.002
1781765728594,0.0715,0.0005,0.0923,0.0002,-0.0317,-0.0063
1781765728615,0.0171,0.0144,0.0429,-0.001,-0.0344,-0.0061
1781765728634,-0.0513,-0.0319,0.039,-0.0021,-0.0455,-0.003
1781765728654,-0.034,-0.0396,0.0294,-0.0105,-0.0491,-0.004
1781765728674,0.0129,-0.0686,0.0453,-0.0117,-0.0452,-0.0056
1781765728695,0.0217,-0.0824,0.0712,-0.0207,-0.0405,-0.0122
1781765728714,-0.0463,-0.061,0.1045,-0.0288,-0.0443,-0.0127
1781765728734,-0.1258,-0.0198,0.0999,-0.0295,-0.0534,-0.0041
1781765728754,-0.0987,0.0644,0.0775,-0.0271,-0.06,0.0068
1781765728774,-0.0434,0.0554,0.0694,-0.027,-0.0642,0.0122
1781765728794,-0.0195,0.0146,0.0639,-0.0193,-0.0677,0.0122
1781765728816,-0.0446,-0.0047,0.0681,-0.0104,-0.0682,0.0055
1781765728835,-0.1102,-0.0265,0.006,-0.0024,-0.0581,0.0022
1781765728854,-0.1432,-0.0448,-0.0486,-0.0032,-0.0439,-0.0079
1781765728874,-0.1878,-0.0221,-0.0592,-0.0041,-0.0237,-0.0185
1781765728894,-0.2897,0.017,-0.0626,-0.0076,-0.0077,-0.0207
1781765728914,-0.3059,0.0569,-0.0596,-0.0055,0.003,-0.0183
1781765728934,-0.2822,0.0341,-0.0206,-0.006,0.0163,-0.0117
1781765728954,-0.2105,0.0159,0.0347,-0.0073,0.0229,-0.0127
1781765728974,-0.1484,0.0764,0.0982,-0.0011,0.0323,-0.0147
1781765728994,-0.1192,0.1176,0.1498,0.0053,0.0415,-0.0127
1781765729014,-0.0721,0.0836,0.2021,0.0168,0.0394,-0.0114
1781765729034,-0.018,0.0051,0.1797,0.0228,0.0287,-0.0048
1781765729055,0.0603,-0.0204,0.1131,0.0273,0.0179,-0.0065
1781765729074,0.1208,-0.036,0.0656,0.0257,0.0169,-0.0045
1781765729094,0.1029,-0.0455,0.073,0.0258,0.0119,-0.0051
1781765729114,0.0569,-0.0432,0.0826,0.0225,0.0047,0.0012
1781765729134,0.0367,-0.0574,0.077,0.0145,-0.0079,-0.0037
1781765729154,0.0213,-0.0571,0.0754,0.0131,-0.0063,-0.0075
1781765729174,-0.0038,-0.05,0.0869,0.0126,0.0017,-0.0112
1781765729194,-0.0647,-0.0431,0.0742,0.008,0.0033,-0.012
1781765729215,-0.0795,-0.0268,0.048,0.0046,-0.0,-0.0116
1781765729234,-0.0613,-0.0244,0.0508,0.0059,0.0014,-0.0109
1781765729254,-0.0384,-0.0056,0.0555,0.0089,0.0036,-0.0171
1781765729274,-0.0396,0.0021,0.0566,0.0111,0.0039,-0.0151
1781765729294,0.1413,-0.0836,0.0701,0.0222,0.0287,-0.0262
1781765729315,-0.0872,-0.0369,0.0551,0.0233,0.0008,-0.0142
1781765729334,-0.1728,0.0362,-0.0658,0.0075,-0.0127,-0.0017
1781765729354,0.0661,-0.0213,0.069,0.0141,-0.0034,0.0011
1781765729375,-0.0874,0.0343,-0.013,0.0134,-0.0123,0.0036
1781765729394,-0.0805,-0.0151,-0.0544,0.0111,-0.0206,0.0079
1781765729414,-0.063,-0.0556,-0.0515,0.0059,-0.0195,-0.0006
1781765729434,-0.0466,-0.0961,0.02,0.0086,0.0011,-0.013
1781765729454,-0.1432,-0.0154,0.0561,0.0109,0.0113,-0.0145
1781765729474,-0.2153,0.0513,0.0718,0.0111,0.0206,-0.0173
1781765729494,-0.2463,0.0752,0.0722,0.0141,0.0184,-0.0147
1781765729514,-0.1979,0.0761,0.0759,0.019,0.018,-0.0135
1781765729534,-0.1534,0.0716,0.0701,0.0227,0.0224,-0.0131
1781765729555,-0.1271,0.047,0.0814,0.0275,0.0276,-0.0072
1781765729574,-0.0534,0.0292,0.0872,0.035,0.0297,-0.0022
1781765729594,-0.0041,-0.0219,0.052,0.0371,0.0209,0.0019
1781765729615,0.0791,-0.0742,0.0248,0.034,0.0157,-0.0017
1781765729634,0.1152,-0.1014,-0.0118,0.0313,0.019,0.0012
1781765729654,0.112,-0.1004,-0.0309,0.0262,0.0212,-0.0047
1781765729675,0.0996,-0.1173,-0.0217,0.0243,0.018,-0.004
1781765729694,0.078,-0.1398,-0.0008,0.0179,0.0121,-0.0078
1781765729714,0.0486,-0.1173,0.0143,0.0108,0.0067,-0.007
1781765729734,0.0195,-0.0852,0.0173,0.0027,0.0063,-0.0077
1781765729754,0.0111,-0.0537,0.0521,-0.0007,0.01,-0.0083
1781765729775,-0.0276,-0.0499,0.0872,-0.0057,0.0099,-0.0078
1781765729794,-0.0419,-0.0115,0.1204,-0.0007,0.0048,-0.0036
1781765729814,-0.0054,0.0039,0.1565,-0.0012,-0.0048,-0.0045
1781765729835,0.0313,-0.0134,0.1751,-0.0055,-0.0113,-0.0031
1781765729854,0.0192,-0.0467,0.1745,-0.0116,-0.0227,-0.0007
1781765729874,0.0019,-0.0417,0.1619,-0.0173,-0.0383,-0.0043
1781765729895,0.0006,-0.0366,0.1382,-0.0188,-0.0437,-0.002
1781765729914,0.0232,-0.0242,0.137,-0.0179,-0.0451,-0.0042
1781765729934,-0.001,-0.0169,0.1353,-0.0212,-0.0485,-0.0015
1781765729954,-0.032,-0.0131,0.1237,-0.0249,-0.0542,-0.0053
1781765729974,-0.0575,-0.0138,0.0867,-0.0251,-0.0633,0.0037
1781765729994,-0.0458,0.0041,0.0826,-0.0266,-0.0599,0.0026
1781765730014,0.0131,-0.0313,0.0331,-0.0249,-0.0655,0.0051
1781765730034,0.0641,-0.0486,0.0326,-0.0237,-0.0686,0.0085
1781765730054,0.0679,-0.0679,0.0142,-0.0244,-0.0723,0.0043
1781765730075,0.0265,-0.0715,-0.0144,-0.0236,-0.0707,0.0031
1781765730094,0.0167,-0.0822,-0.0214,-0.0212,-0.0698,0.0052
1781765730114,0.0446,-0.0587,-0.0321,-0.0225,-0.0781,0.0038
1781765730134,0.0446,-0.0587,-0.0321,-0.0313,-0.0895,0.0015
1781765730154,0.0306,-0.074,-0.0413,-0.0399,-0.0807,-0.0064
1781765730174,-0.0529,-0.0328,0.0156,-0.0397,-0.0643,-0.0133
1781765730194,-0.149,0.0281,0.055,-0.0381,-0.0526,-0.0137
1781765730214,-0.1957,0.0555,0.0972,-0.0413,-0.053,-0.0075
1781765730234,-0.1957,0.0555,0.0972,-0.0337,-0.0617,-0.002
1781765730255,-0.1632,0.0617,0.0582,-0.0299,-0.0629,0.0023
1781765730274,-0.146,0.0761,0.044,-0.0198,-0.0569,-0.0001
1781765730294,-0.181,0.068,0.0508,-0.0104,-0.0444,0.001
1781765730314,-0.1739,0.0682,0.0529,-0.0049,-0.0339,-0.0016
1781765730334,-0.1739,0.0682,0.0529,-0.0049,-0.0339,-0.0016
1781765730355,-0.1825,0.0595,0.0396,0.0108,-0.0259,-0.0038
1781765730374,-0.2193,0.0639,0.0067,0.0158,-0.0138,-0.0114
1781765730394,-0.2597,0.0357,-0.0129,0.0228,0.0018,-0.0153
1781765730415,-0.2983,-0.022,-0.0418,0.0211,0.0142,-0.0152
1781765730435,-0.2983,-0.022,-0.0418,0.0211,0.0142,-0.0152
1781765730454,-0.1343,0.0008,-0.0315,0.0129,0.0317,-0.0182
1781765730474,-0.0964,-0.0656,0.0143,0.0135,0.0441,-0.0191
1781765730495,-0.0792,-0.0782,0.0538,0.0087,0.0441,-0.0151
1781765730514,0.0068,-0.0219,0.0733,0.0035,0.0388,-0.0137
1781765730535,0.0068,-0.0219,0.0733,0.0035,0.0388,-0.0137
1781765730554,0.146,0.0172,0.1914,0.014,0.0466,-0.0239
1781765730574,0.0786,0.0965,0.1864,0.0305,0.0378,-0.0314
1781765730595,-0.0567,0.084,0.117,0.0478,0.035,-0.0326
1781765730614,-0.1791,0.0744,0.0614,0.0596,0.0284,-0.0242
1781765730635,-0.1791,0.0744,0.0614,0.0596,0.0284,-0.0242
1781765730654,-0.095,0.0124,-0.0801,0.045,0.0197,-0.0018
1781765730675,-0.0996,0.01,-0.0691,0.0449,0.0149,0.0037
1781765730694,-0.0996,0.01,-0.0691,0.0503,0.0128,0.0184
1781765730714,-0.1319,-0.0224,-0.0916,0.0582,0.0241,0.0121
1781765730735,-0.0565,-0.0198,-0.0851,0.0582,0.0241,0.0121
1781765730755,-0.1686,-0.0599,-0.0054,0.0564,0.0688,-0.012
1781765730774,-0.1686,-0.0599,-0.0054,0.0516,0.0808,-0.0183
1781765730794,-0.2297,-0.0095,0.0053,0.0421,0.0961,-0.0215
1781765730814,-0.2571,0.0066,0.0205,0.0421,0.0961,-0.0215
1781765730834,-0.2287,0.051,0.0649,0.041,0.1113,-0.0293
1781765730854,-0.2161,0.0813,0.1275,0.0553,0.1306,-0.0349
1781765730874,-0.2496,0.1116,0.1297,0.0656,0.1448,-0.0373
1781765730894,-0.2831,0.1352,0.1109,0.0695,0.1511,-0.0319
1781765730914,-0.2695,0.1197,0.105,0.0764,0.1393,-0.0205
1781765730935,-0.1548,0.1588,0.0683,0.0866,0.1309,-0.0058
1781765730954,-0.0169,0.0379,0.0557,0.0957,0.1117,0.0013
1781765730974,0.082,-0.0555,0.0241,0.1002,0.1069,-0.0004
1781765730995,0.1182,-0.1267,-0.0273,0.103,0.1095,-0.0063
1781765731014,0.1907,-0.1637,-0.0918,0.0995,0.1058,-0.0095
1781765731035,0.2019,-0.1816,-0.1218,0.0874,0.107,-0.0095
1781765731054,0.1959,-0.1713,-0.1391,0.0726,0.1012,-0.0045
1781765731075,0.1863,-0.1953,-0.093,0.0595,0.0917,-0.0082
1781765731094,0.1954,-0.1843,-0.0527,0.0475,0.0853,-0.0103
1781765731114,0.19,-0.1671,0.032,0.0342,0.0788,-0.0114
1781765731135,0.1437,-0.2278,0.142,0.0191,0.0572,0.0204
1781765731154,0.3046,-0.2695,0.2323,-0.0113,0.0504,0.0279
1781765731174,0.4702,-0.1754,0.2694,-0.0674,0.0587,0.0181
1781765731194,0.3818,-0.012,0.3688,-0.038,-0.0121,-0.0015
1781765731215,0.2018,0.0469,0.2205,0.0258,-0.1247,0.0002
1781765731235,0.1531,0.0057,-0.0618,0.0285,-0.1557,0.0047
1781765731254,0.0833,-0.0212,-0.0851,-0.0091,-0.0927,0.0007
1781765731275,-0.036,-0.1099,0.1016,-0.0307,-0.0754,0.0035
1781765731294,-0.1074,-0.0745,0.198,-0.0354,-0.0948,0.0039
1781765731314,-0.1563,-0.0262,0.1262,-0.0308,-0.1056,0.0067
1781765731335,-0.1569,0.0231,0.0384,-0.0313,-0.0941,0.0102
1781765731354,-0.1304,0.0627,0.0005,-0.0326,-0.0738,0.009
1781765731375,-0.107,0.0096,-0.0252,-0.0309,-0.0707,0.0045
1781765731394,-0.0583,-0.0364,0.0317,-0.0273,-0.078,0.0016
1781765731414,-0.0527,-0.0691,0.051,-0.0267,-0.0819,-0.0005
1781765731435,-0.0432,-0.058,0.0555,-0.0304,-0.0749,-0.0045
1781765731454,-0.0113,-0.0921,0.0581,-0.0408,-0.0727,-0.0037
1781765731475,0.0214,-0.108,0.0998,-0.0489,-0.0831,0.0008
1781765731494,0.0382,-0.0813,0.0857,-0.0533,-0.0975,0.0011
1781765731514,0.1123,-0.0147,0.0457,-0.0525,-0.1014,-0.0004
1781765731535,0.1195,-0.0381,0.0506,-0.0525,-0.092,-0.0036
1781765731554,0.0918,-0.0664,0.0825,-0.0491,-0.0885,-0.0105
1781765731574,0.0384,-0.0496,0.0762,-0.0487,-0.1004,-0.0108
1781765731594,0.0058,-0.0357,-0.0121,-0.0584,-0.1098,-0.0084
1781765731615,-0.036,-0.0367,-0.0402,-0.0638,-0.1102,-0.013
1781765731635,-0.1187,-0.0431,-0.0683,-0.0648,-0.0913,-0.0159
1781765731654,-0.2066,-0.0226,-0.1135,-0.0649,-0.0792,-0.0134
1781765731675,-0.2126,0.0314,-0.1246,-0.0609,-0.0641,-0.0091
1781765731694,-0.188,0.0541,-0.1103,-0.0581,-0.0496,-0.008
1781765731714,-0.2232,0.0414,-0.0632,-0.0569,-0.0371,-0.0056
1781765731735,-0.2448,-0.004,-0.0396,-0.0569,-0.0273,-0.0038
1781765731755,-0.1939,0.0233,-0.0388,-0.0553,-0.012,-0.0113
1781765731774,-0.1689,0.024,-0.0171,-0.059,0.001,-0.0158
1781765731794,-0.2123,-0.0046,0.0078,-0.0626,0.0075,-0.0269
1781765731814,-0.2935,-0.0628,-0.0408,-0.0745,0.0163,-0.0317
1781765731835,-0.2735,-0.0646,-0.1262,-0.0895,0.0271,-0.0368
1781765731854,-0.2197,-0.0385,-0.1753,-0.0983,0.0391,-0.042
1781765731874,-0.1922,-0.0863,-0.1759,-0.1051,0.0588,-0.054
1781765731894,-0.1997,-0.055,-0.1492,-0.1123,0.0897,-0.0665
1781765731914,-0.1846,0.0684,-0.1241,-0.115,0.1286,-0.0801
1781765731936,-0.1563,0.1328,-0.0357,-0.1044,0.1715,-0.0856
1781765731954,-0.1506,0.1326,0.1948,-0.0725,0.1735,-0.0869
1781765731974,-0.1945,0.2036,0.3724,-0.027,0.1535,-0.075
1781765731995,-0.1524,0.2911,0.4071,0.0046,0.122,-0.0599
1781765732014,-0.1311,0.2769,0.3949,0.0237,0.0895,-0.0476
1781765732035,-0.1017,0.233,0.4284,0.0414,0.0509,-0.0435
1781765732054,-0.1497,0.194,0.401,0.0504,0.0183,-0.0444
1781765732074,-0.2199,0.1173,0.3269,0.0536,0.0027,-0.0421
1781765732094,-0.3403,0.0052,0.3104,0.0542,-0.0054,-0.0297
1781765732115,-0.2495,0.0897,0.2329,0.0687,0.0084,-0.031
1781765732134,-0.1396,0.1475,0.1396,0.0848,0.042,-0.0339
1781765732154,-0.0641,0.0379,0.0843,0.0809,0.0673,-0.0401
1781765732174,-0.1053,0.0152,0.1378,0.0902,0.0504,-0.051
1781765732194,-0.3514,0.0006,0.1048,0.1032,0.0224,-0.0417
1781765732215,-0.4869,-0.0894,-0.0473,0.1102,-0.0274,-0.0131
1781765732235,-0.3002,0.1225,-0.1818,0.1372,-0.024,-0.0077
1781765732253,-0.172,0.2621,-0.1954,0.1885,-0.0291,0.0258
1781765732275,-0.1111,-0.1387,-0.2482,0.2009,-0.0686,0.0687
1781765732294,0.3819,-0.0897,-0.4722,0.1948,-0.0281,0.0715
1781765732314,0.6604,-0.3181,-0.5582,0.1914,0.062,0.0431
1781765732335,0.4316,-0.5028,-0.5475,0.1553,0.1802,0.0218
1781765732354,0.2189,-0.3804,-0.4142,0.1381,0.2303,0.0149
1781765732374,0.0421,-0.0592,-0.6009,0.1315,0.2871,0.0231
1781765732395,-0.0151,-0.1087,-0.7172,0.1489,0.3691,0.0303
1781765732414,0.0955,-0.088,-0.375,0.2079,0.3967,0.0291
1781765732436,0.156,-0.0613,-0.1626,0.2391,0.3849,0.0222
1781765732454,0.2976,-0.0585,-0.087,0.226,0.3953,0.0168
1781765732474,0.3245,-0.0643,0.0199,0.2258,0.3575,0.0087
1781765732494,0.3628,-0.0309,-0.0445,0.2137,0.2376,0.0233
1781765732514,0.4404,-0.0267,-0.0493,0.1799,0.1064,0.0439
1781765732538,0.4638,-0.1273,0.1222,0.1519,-0.0196,0.0522
1781765732554,0.3236,-0.1084,0.1511,0.1349,-0.1349,0.0577
1781765732574,0.1763,0.0126,0.018,0.1198,-0.2189,0.0615
1781765732594,0.1479,-0.025,-0.0648,0.1055,-0.2452,0.0678
1781765732614,0.1294,-0.0531,-0.0338,0.1021,-0.2261,0.0624
1781765732634,0.1237,-0.0585,0.1178,0.1212,-0.2251,0.0543
1781765732654,0.1203,-0.0227,0.0985,0.1375,-0.2435,0.0541
1781765732674,0.1548,-0.0839,0.0135,0.1119,-0.2386,0.0547
1781765732694,0.1861,-0.1798,0.09,0.0751,-0.2122,0.057
1781765732714,0.2158,-0.3,0.1804,0.0557,-0.1843,0.0464
1781765732734,0.1265,-0.2272,0.1715,0.0542,-0.1722,0.0421
1781765732754,0.184,-0.1705,0.0442,0.0426,-0.1675,0.044
1781765732774,0.2325,-0.2796,-0.0917,0.0063,-0.163,0.0539
1781765732794,0.3527,-0.4061,-0.0746,-0.0365,-0.1357,0.0563
1781765732815,0.4787,-0.3637,0.0313,-0.0651,-0.1145,0.0547
1781765732836,0.4787,-0.3637,0.0313,-0.0793,-0.1302,0.0538
1781765732856,0.5251,-0.3091,0.2472,-0.0944,-0.1591,0.0499
1781765732874,0.5391,-0.2495,0.3243,-0.0945,-0.1993,0.0479
1781765732894,0.4604,-0.2368,0.2375,-0.1068,-0.2173,0.0528
1781765732914,0.3935,-0.2062,0.2378,-0.1222,-0.2259,0.0537
1781765732936,0.3935,-0.2062,0.2378,-0.1222,-0.2259,0.0537
1781765732955,0.283,-0.1512,0.2676,-0.1322,-0.2533,0.051
1781765732974,0.1294,-0.1209,0.278,-0.1346,-0.2499,0.0546
1781765732994,0.0294,-0.0273,0.2561,-0.1335,-0.2304,0.0544
1781765733014,-0.0473,-0.0035,0.2498,-0.1384,-0.1927,0.0567
1781765733034,-0.1516,0.0006,0.3092,-0.1371,-0.1653,0.0621
1781765733054,-0.163,0.0641,0.2988,-0.1394,-0.1623,0.062
1781765733074,-0.1692,0.0992,0.256,-0.138,-0.1392,0.0583
1781765733095,-0.2365,0.0815,0.2066,-0.1381,-0.1148,0.0498
1781765733114,-0.2365,0.0815,0.2066,-0.13,-0.0746,0.0435
1781765733134,-0.3155,0.1158,0.2296,-0.1216,-0.0389,0.036
1781765733154,-0.3155,0.1158,0.2296,-0.1175,-0.0187,0.0298
1781765733174,-0.3911,0.148,0.1779,-0.1174,-0.0184,0.0339
1781765733194,-0.4821,0.1939,0.1323,-0.1072,-0.0044,0.0399
1781765733214,-0.5211,0.2194,0.1043,-0.0946,0.0048,0.0415
1781765733234,-0.4975,0.2035,0.1138,-0.086,0.0171,0.0497
1781765733254,-0.4434,0.1776,0.0903,-0.0674,0.0192,0.0477
1781765733274,-0.3945,0.1913,0.0623,-0.0516,0.0263,0.0445
1781765733295,-0.3203,0.1754,0.0862,-0.0285,0.0394,0.0329
1781765733314,-0.3012,0.1851,0.1838,-0.0285,0.0394,0.0329
1781765733334,-0.3662,0.2032,0.2702,0.0038,0.0376,0.0206
1781765733354,-0.4788,0.1921,0.2396,0.0375,0.058,0.0074
1781765733373,-0.5372,0.2589,0.1377,0.0503,0.0922,0.008
1781765733394,-0.5849,0.3015,0.0952,0.0552,0.1157,0.0161
1781765733414,-0.6489,0.2959,0.1124,0.0684,0.1161,0.0319
1781765733435,-0.6093,0.2457,0.066,0.0794,0.1065,0.0461
1781765733454,-0.5035,0.0823,0.004,0.0921,0.1109,0.0502
1781765733474,-0.371,0.1059,0.0212,0.1021,0.1168,0.0406
1781765733494,-0.3011,0.1539,0.1151,0.1213,0.1816,0.0124
1781765733515,-0.4833,0.2276,0.1728,0.152,0.2352,-0.0044
1781765733537,-0.6087,0.3406,0.1164,0.1798,0.2669,-0.0126
1781765733554,-0.5992,0.3334,-0.0049,0.1925,0.278,0.0002
1781765733575,-0.3827,0.1852,-0.1238,0.1959,0.2524,0.0084
1781765733594,-0.154,-0.0157,-0.2075,0.1884,0.2373,0.006
1781765733614,-0.0494,-0.1245,-0.214,0.1787,0.2356,-0.0094
1781765733634,0.0236,-0.0422,-0.1195,0.1752,0.2328,-0.0265
1781765733654,-0.0786,-0.0503,0.0029,0.1741,0.2284,-0.0426
1781765733674,-0.1941,0.0143,0.0508,0.1737,0.2109,-0.0546
1781765733694,-0.177,0.1461,0.0773,0.1858,0.1747,-0.0594
1781765733714,-0.1629,0.0907,0.0028,0.1857,0.1441,-0.0574
1781765733734,-0.1942,-0.0454,-0.1075,0.1715,0.1302,-0.049
1781765733754,-0.2063,-0.1635,-0.2407,0.1495,0.119,-0.0411
1781765733774,-0.0368,-0.1121,-0.3576,0.1152,0.1214,-0.0335
1781765733795,0.1622,-0.1254,-0.4115,0.0802,0.1338,-0.0266
1781765733814,0.3967,-0.2472,-0.4178,0.043,0.1206,-0.024
1781765733834,0.5502,-0.4549,-0.3805,0.0088,0.0755,-0.0211
1781765733855,0.7459,-0.405,-0.3305,-0.0071,0.0105,-0.0171
1781765733874,0.9261,-0.3628,-0.2332,-0.0136,-0.0657,-0.0214
1781765733894,1.0592,-0.2014,-0.1077,-0.0234,-0.171,-0.024
1781765733914,0.9172,-0.1987,-0.0346,-0.0368,-0.3218,-0.0035
1781765733934,0.8729,-0.3502,-0.1444,-0.0696,-0.4987,0.0324
1781765733955,1.0217,-0.3772,-0.2695,-0.1106,-0.6413,0.0171
1781765733974,0.6289,-0.6567,-0.3205,-0.1376,-0.7097,-0.0198
1781765733994,0.1906,-0.3065,-0.2818,-0.1501,-0.6725,-0.0555
1781765734015,-0.1343,0.1934,-0.2264,-0.1535,-0.5506,-0.0552
1781765734034,-0.4212,0.2171,-0.1314,-0.1587,-0.448,-0.0346
1781765734055,-0.5629,0.1359,0.0248,-0.1526,-0.3876,-0.0194
1781765734074,-0.5241,0.1657,0.1527,-0.1536,-0.3168,-0.0148
1781765734094,-0.4799,0.1771,0.2877,-0.1439,-0.2295,-0.0087
1781765734114,-0.4593,0.0587,0.3911,-0.1331,-0.1628,0.0091
1781765734135,-0.2131,0.0511,0.4211,-0.1266,-0.131,0.0324
1781765734154,0.1951,0.0272,0.3933,-0.1215,-0.1797,0.0415
1781765734174,0.4046,-0.1307,0.3507,-0.1245,-0.2542,0.0278
1781765734195,0.2546,-0.2104,0.3538,-0.132,-0.3173,0.0117
1781765734214,-0.0283,-0.1164,0.3641,-0.1327,-0.3323,0.0069
1781765734234,-0.258,0.0618,0.4056,-0.1011,-0.3126,-0.0002
1781765734254,-0.3857,0.332,0.4572,-0.0487,-0.2607,-0.0036
1781765734274,-0.4469,0.4689,0.4202,-0.0083,-0.2071,-0.0033
1781765734294,-0.568,0.4833,0.3992,0.027,-0.1493,0.0067
1781765734314,-0.8112,0.3564,0.3942,0.0572,-0.068,0.0099
1781765734334,-0.8856,0.3102,0.4317,0.0849,0.0101,0.0215
1781765734354,-0.8799,0.3412,0.4806,0.1152,0.1109,0.0313
1781765734375,-0.8623,0.2439,0.462,0.1382,0.1907,0.0487
1781765734394,-0.6385,0.2547,0.4293,0.1669,0.2425,0.0406
1781765734414,-0.3731,0.2357,0.3025,0.2015,0.2599,0.0193
1781765734435,-0.2565,0.0356,0.2043,0.2159,0.259,-0.0006
1781765734454,-0.2395,-0.2047,0.1452,0.2185,0.2572,-0.0244
1781765734474,-0.3397,-0.2129,0.094,0.2164,0.3009,-0.0221
1781765734495,-0.3208,0.0947,0.0689,0.2177,0.3574,-0.013
1781765734514,-0.2507,0.2915,0.0837,0.2252,0.3903,-0.0089
1781765734534,-0.1708,0.2156,0.0921,0.2365,0.3663,0.0098
1781765734554,0.0088,0.0143,0.1159,0.2314,0.3307,0.0068
1781765734574,0.0163,-0.0863,0.1606,0.2333,0.3251,-0.0109
1781765734594,-0.05,-0.0222,0.1604,0.2429,0.3274,-0.0193
1781765734614,-0.1091,-0.0218,0.1615,0.2582,0.3388,-0.0152
1781765734634,-0.0282,-0.0585,0.1003,0.2599,0.3356,-0.0111
1781765734655,0.1241,-0.0853,0.0286,0.2652,0.3416,-0.014
1781765734674,0.2485,-0.073,-0.0108,0.2753,0.3619,-0.0279
1781765734693,0.2805,-0.1035,-0.0943,0.2734,0.3839,-0.035
1781765734715,0.2357,-0.1649,-0.154,0.2472,0.3879,-0.0354
1781765734734,0.1448,-0.1861,-0.1921,0.2162,0.3592,-0.028
1781765734754,0.178,-0.1769,-0.1927,0.1914,0.3044,-0.0132
1781765734774,0.3221,-0.1697,-0.1606,0.1643,0.2593,-0.0076
1781765734794,0.4269,-0.2472,-0.0673,0.1378,0.2149,-0.0069
1781765734814,0.4212,-0.2511,0.0378,0.1164,0.1841,-0.0165
1781765734834,0.3255,-0.1685,0.1099,0.1095,0.1658,-0.0286
1781765734854,0.1633,-0.1623,0.0787,0.1076,0.1555,-0.0332
1781765734874,0.0682,-0.1238,0.0021,0.0962,0.1386,-0.0253
1781765734894,0.0515,-0.1563,-0.0658,0.078,0.1193,-0.0128
1781765734914,0.1618,-0.1853,-0.0928,0.0561,0.1167,-0.0155
1781765734934,0.2272,-0.1634,-0.0459,0.0413,0.116,-0.022
1781765734955,0.1843,-0.1006,0.0368,0.0377,0.1089,-0.0271
1781765734975,0.1706,-0.003,0.0531,0.0365,0.0789,-0.0296
1781765734994,0.0944,0.0658,0.0195,0.041,0.0506,-0.0246
1781765735014,0.0196,-0.0052,-0.0471,0.0403,0.0214,-0.0117
1781765735035,-0.0406,-0.0714,-0.0605,0.0423,0.0129,0.0035
1781765735054,-0.0406,-0.0714,-0.0605,0.0536,0.0275,0.0028
1781765735074,-0.1318,-0.0042,-0.0035,0.0568,0.0509,0.0053
1781765735094,-0.2642,0.1259,-0.0094,0.0565,0.0718,0.0141
1781765735114,-0.3702,0.1435,-0.0362,0.0635,0.1205,0.0173
1781765735134,-0.3101,0.0279,-0.0304,0.0707,0.1707,0.0143
1781765735155,-0.3101,0.0279,-0.0304,0.0707,0.1707,0.0143
1781765735174,-0.0648,-0.158,-0.0251,0.0715,0.2318,-0.0154
1781765735194,0.0074,-0.1103,-0.0267,0.0627,0.2226,-0.0193
1781765735214,0.1325,-0.0685,-0.0367,0.029,0.1795,-0.0098
1781765735234,0.1809,-0.103,0.0014,-0.0104,0.121,0.0059
1781765735256,0.196,-0.1541,0.0709,-0.0316,0.0476,0.0142
1781765735274,0.2155,-0.1498,0.0925,-0.0367,-0.0176,0.0099
1781765735294,0.2557,-0.0697,0.1158,-0.0309,-0.0725,0.0058
1781765735314,0.3235,-0.0518,0.1398,-0.0276,-0.1253,0.0055
1781765735334,0.3158,-0.0454,0.116,-0.0342,-0.1583,-0.0063
1781765735355,0.2192,-0.0318,0.1148,-0.0456,-0.1859,-0.0135
1781765735374,0.1149,-0.0548,0.0854,-0.0572,-0.2186,-0.0176
1781765735394,0.0016,-0.0479,0.077,-0.0612,-0.2273,-0.0136
1781765735414,-0.0803,-0.0895,0.023,-0.0677,-0.233,-0.0045
1781765735434,-0.1216,-0.023,0.0441,-0.0636,-0.2275,-0.0026
1781765735455,-0.1216,-0.023,0.0441,-0.0636,-0.2275,-0.0026
1781765735474,-0.158,-0.0265,0.1153,-0.0515,-0.2061,-0.0091
1781765735495,-0.2354,0.0128,0.1224,-0.047,-0.1978,-0.0092
1781765735514,-0.1974,0.0398,0.1012,-0.0402,-0.1718,-0.0084
1781765735534,-0.1358,0.0567,0.0703,-0.0339,-0.1456,-0.0082
1781765735555,-0.1358,0.0567,0.0703,-0.0339,-0.1456,-0.0082
1781765735575,-0.0156,0.1234,0.0138,-0.0386,-0.157,-0.0046
1781765735594,0.0571,-0.0334,-0.0538,-0.0601,-0.1909,-0.0076
1781765735614,0.1995,-0.1807,-0.0259,-0.0802,-0.2122,-0.0114
1781765735635,0.2354,-0.174,0.0392,-0.0898,-0.2215,-0.0198
1781765735655,0.1704,-0.0389,0.0952,-0.0898,-0.2215,-0.0198
1781765735674,0.0058,-0.0919,0.1062,-0.0956,-0.2522,-0.0194
1781765735695,-0.0865,-0.0704,0.0764,-0.1026,-0.2546,-0.0237
1781765735714,-0.0634,-0.0334,0.0305,-0.1026,-0.2546,-0.0237
1781765735735,0.0284,0.0094,0.0452,-0.1023,-0.2395,-0.0463
1781765735755,-0.021,0.0203,0.1389,-0.1023,-0.2395,-0.0463
1781765735774,-0.2258,0.0048,0.2171,-0.0988,-0.2198,-0.0443
1781765735794,-0.4653,0.0854,0.2488,-0.0865,-0.1949,-0.0336
1781765735815,-0.4387,0.2449,0.204,-0.0623,-0.1583,-0.0256
1781765735834,-0.342,0.1498,0.1873,-0.0455,-0.1238,-0.0238
1781765735855,-0.2517,0.0955,0.1851,-0.0419,-0.1116,-0.0308
1781765735874,-0.2167,0.0447,0.1395,-0.0543,-0.1217,-0.0296
1781765735894,-0.141,-0.0008,0.0875,-0.0678,-0.132,-0.0189
1781765735915,0.0033,0.0421,0.0681,-0.066,-0.1396,-0.0141
1781765735934,0.0813,-0.0627,0.0153,-0.0607,-0.1519,-0.0202
1781765735955,0.1182,-0.1133,-0.0451,-0.0575,-0.1894,-0.0223
1781765735974,0.1406,-0.0941,-0.0989,-0.071,-0.2394,-0.0181
1781765735994,0.1729,-0.1352,-0.1411,-0.0879,-0.2914,-0.0166
1781765736015,0.0873,-0.2248,-0.1431,-0.1041,-0.3359,-0.0215
1781765736034,-0.045,-0.2135,-0.1602,-0.117,-0.3315,-0.0186
1781765736055,-0.22,-0.0682,-0.1605,-0.1321,-0.283,-0.0167
1781765736073,-0.2939,0.078,-0.1279,-0.1383,-0.2288,-0.0137
1781765736095,-0.2821,0.1426,0.005,-0.1298,-0.1772,-0.0173
1781765736114,-0.2651,0.1253,0.1237,-0.1212,-0.1384,-0.0274
1781765736135,-0.3549,0.051,0.1842,-0.1136,-0.0958,-0.0246
1781765736155,-0.3469,0.1006,0.2826,-0.106,-0.0442,-0.0021
1781765736174,-0.2458,0.2199,0.3637,-0.0839,0.0011,0.0264
1781765736194,-0.0485,0.246,0.4075,-0.0426,0.0249,0.0521
1781765736214,0.1073,0.1619,0.3738,0.0152,0.0204,0.0491
1781765736234,0.1651,0.0311,0.2762,0.061,0.011,0.0256
1781765736255,0.1326,0.0915,0.1874,0.088,0.021,-0.0056
1781765736274,0.0007,0.172,0.1065,0.0939,0.0393,-0.02
1781765736294,-0.0984,0.2093,0.0242,0.0839,0.0535,-0.0283
1781765736314,-0.0204,0.2131,-0.1035,0.0583,0.0442,-0.0259
1781765736335,0.0156,-0.1872,-0.2154,0.0078,0.0029,-0.0201
1781765736355,-0.1578,-0.4966,-0.0789,-0.0267,-0.0139,-0.022
1781765736374,-0.6613,-0.3106,0.113,-0.0205,0.0154,0.0124
1781765736395,-0.9529,0.0656,0.1209,0.0128,0.0505,0.07
1781765736414,-0.717,0.3806,0.0601,0.049,0.0885,0.1054
1781765736434,-0.2471,0.4622,-0.0172,0.0787,0.0943,0.1078
1781765736455,0.2293,0.2246,-0.0868,0.1017,0.0776,0.0833
1781765736474,0.5863,-0.1161,-0.091,0.1135,0.0248,0.051
1781765736494,0.7716,-0.3237,-0.0751,0.1121,-0.0129,0.0204
