timestamp_ms,acc_x,acc_y,acc_z,gyro_x,gyro_y,gyro_z
1781765488755,0.806,0.2593,0.2937,0.3755,0.2595,0.2205
1781765488774,-0.3586,-0.4283,-0.6177,0.3314,0.1278,0.3573
1781765488794,-0.6018,-0.5855,-1.0692,0.3034,0.1351,0.4663
1781765488814,-0.1195,-0.4767,-0.2708,0.3767,0.1269,0.4509
1781765488834,0.1027,-0.3679,-0.2701,0.4455,0.1168,0.3918
1781765488854,-0.044,-0.4873,-0.7244,0.4361,0.1202,0.3745
1781765488874,-0.2646,-0.7285,-1.1723,0.4045,0.0962,0.451
1781765488893,-0.5243,-0.8482,-1.6016,0.3897,0.0525,0.5534
1781765488914,-0.3818,-0.8537,-2.1895,0.3338,0.0372,0.614
1781765488934,-0.2287,-0.9326,-2.4647,0.3213,0.09,0.6574
1781765488955,-0.0259,-0.7734,-2.641,0.2729,0.2097,0.6187
1781765488974,0.0201,-0.7327,-3.3004,0.0495,0.355,0.6058
1781765488994,-0.2753,-1.0334,-4.0688,-0.2275,0.4013,0.7162
1781765489014,-0.8141,-1.252,-4.4914,-0.3552,0.1803,0.8497
1781765489034,-0.8913,-1.4724,-4.5888,-0.2814,-0.2689,0.8797
1781765489054,-1.3139,-1.6956,-4.764,-0.0732,-0.9047,1.0798
1781765489073,-1.7785,-2.4186,-5.2051,0.1661,-1.6671,1.3327
1781765489094,-2.2464,-3.0333,-5.6285,0.3747,-2.4644,1.5955
1781765489114,-2.7719,-3.5701,-5.8805,0.5614,-3.3889,1.9908
1781765489134,-3.0973,-4.4893,-6.0049,0.6675,-4.2391,2.4278
1781765489155,-3.0981,-5.271,-5.4673,0.7885,-4.8679,2.8991
1781765489174,-2.7817,-6.1135,-4.5983,0.9178,-5.2635,3.4216
1781765489194,-1.8901,-6.7601,-3.5684,1.0126,-5.2803,3.9014
1781765489213,-0.5218,-7.1069,-2.4871,1.0192,-4.9247,4.2378
1781765489233,0.8917,-6.9171,-1.3266,0.9016,-4.2089,4.437
1781765489254,2.4073,-6.5058,-0.5978,0.5301,-3.171,4.4576
1781765489274,3.8992,-6.3881,-0.0693,-0.047,-1.9505,4.3557
1781765489294,5.4504,-6.3603,0.5664,-0.5884,-0.8415,4.1911
1781765489314,6.3242,-6.0204,1.2282,-0.9122,-0.0739,4.0612
1781765489333,6.938,-5.336,1.8297,-0.932,0.124,4.0198
1781765489354,7.3388,-4.1152,2.2614,-0.7515,-0.0941,4.0264
1781765489374,7.6473,-2.5299,2.6449,-0.4538,-0.4541,4.0278
1781765489393,7.8497,-0.9963,3.1493,-0.104,-0.7862,4.009
1781765489413,8.116,0.1824,3.3114,0.1837,-0.8913,3.9135
1781765489434,8.6223,1.1746,3.5533,0.4839,-0.7602,3.5955
1781765489454,8.9109,2.155,3.45,0.778,-0.4298,2.9771
1781765489474,8.7768,2.9027,2.9216,0.9803,0.0923,2.1987
1781765489493,8.1651,3.5152,1.8442,1.0103,0.5837,1.5163
1781765489513,7.162,3.7232,1.0213,0.8655,1.0392,1.0266
1781765489534,6.144,3.472,0.0807,0.5393,1.4711,0.8049
1781765489554,5.2195,3.1651,-0.0597,0.2174,1.741,0.8011
1781765489574,5.0762,3.0601,0.4259,0.0921,1.7831,0.8833
1781765489593,5.7091,2.7124,0.9431,0.1035,1.6696,0.9059
1781765489613,6.8824,1.9779,1.0752,0.1775,1.3249,0.8488
1781765489634,8.4312,1.5106,1.5195,0.2151,1.0675,0.7496
1781765489654,9.4052,0.6882,1.4641,0.1831,0.7177,0.7449
1781765489673,9.274,0.79,1.8785,0.2976,-0.0106,0.7566
1781765489694,9.1571,1.4444,2.3186,0.54,-0.6863,0.4888
1781765489714,8.4902,2.0636,2.7162,0.8994,-1.2342,0.1026
1781765489734,7.1137,2.4805,2.2274,1.1712,-1.5984,-0.2452
1781765489754,6.0379,2.0693,1.2128,1.1712,-1.5984,-0.2452
1781765489774,4.3292,1.8958,0.0076,1.0621,-0.9636,-0.7977
1781765489793,3.0833,1.0639,-1.1406,0.8769,-0.6398,-0.9487
1781765489813,0.5261,-1.0702,-2.7773,0.8769,-0.6398,-0.9487
1781765489834,-6.8546,-6.9007,-4.4795,1.6704,-4.0435,-0.3174
1781765489855,-2.2954,1.6617,-2.7096,1.6704,-4.0435,-0.3174
1781765489874,1.2506,-2.2775,-1.2681,1.319,-5.8773,-0.4104
1781765489893,5.3904,1.6867,2.2649,1.319,-5.8773,-0.4104
1781765489914,6.5528,0.5354,2.9912,1.0925,-4.7542,-0.6715
1781765489934,5.5524,0.8891,5.4421,0.4605,-2.9297,-1.6694
1781765489955,5.5452,-0.9999,4.5994,0.3931,-1.7699,-2.2056
1781765489974,4.7284,-1.6281,4.4816,0.1563,-0.5915,-2.7457
1781765489993,3.9068,-2.3495,3.5258,0.0539,0.2324,-3.081
1781765490013,2.7362,-2.7805,2.3375,-0.076,0.6929,-3.4068
1781765490033,1.5127,-3.4538,1.4311,-0.3059,0.8285,-3.6901
1781765490054,0.3342,-4.1258,1.0791,-0.5949,0.7816,-3.8849
1781765490073,-0.9768,-4.5892,0.9353,-0.8245,0.6824,-3.9315
1781765490094,-1.7401,-4.8194,0.888,-0.9378,0.6583,-3.8718
1781765490113,-2.3891,-4.5402,0.5279,-0.9254,0.6992,-3.7677
1781765490134,-2.7991,-4.4649,0.0095,-0.9144,0.73,-3.7592
1781765490154,-3.4164,-4.9792,-0.3701,-0.9478,0.7518,-3.8135
1781765490173,-4.6138,-5.8228,-0.2704,-0.9525,0.7559,-3.7268
1781765490194,-5.9465,-6.0346,-0.2541,-0.8592,0.8486,-3.3773
1781765490214,-6.7197,-6.0443,-0.3819,-0.6905,0.8254,-2.8679
1781765490233,-6.8773,-6.0458,-0.7235,-0.4853,0.7245,-2.2794
1781765490253,-6.9059,-5.8571,-1.0249,-0.2923,0.4843,-1.74
1781765490274,-6.5853,-6.1971,-1.2635,-0.0975,0.1554,-1.2898
1781765490293,-6.4029,-6.6354,-1.3694,0.0756,-0.2199,-0.8517
1781765490314,-6.1041,-7.1514,-1.4327,0.2152,-0.5238,-0.3222
1781765490334,-5.2033,-7.7749,-1.4928,0.3045,-0.8467,0.2718
1781765490354,-4.0843,-8.3924,-1.6375,0.3456,-1.1595,0.8177
1781765490374,-3.2611,-8.6967,-1.5993,0.2428,-1.4262,1.2911
1781765490394,-2.8646,-7.9539,-1.1734,0.0268,-1.5871,1.7591
1781765490413,-2.8646,-7.9539,-1.1734,-0.1358,-1.6544,2.2521
1781765490434,-2.364,-6.7297,-0.1135,-0.041,-1.6818,2.7239
1781765490454,-0.5801,-4.5937,1.004,0.2501,-1.5892,3.0947
1781765490473,-0.5801,-4.5937,1.004,0.6282,-1.3823,3.3451
1781765490494,0.1185,-3.023,0.861,1.0035,-1.178,3.3988
1781765490514,1.1682,-1.7097,0.0858,1.1762,-1.0549,3.1546
1781765490533,2.2208,-1.4643,-0.9912,1.004,-0.9773,2.8639
1781765490553,2.5962,-1.6844,-1.5985,0.4333,-0.6614,2.6149
1781765490573,2.8252,-2.5031,-1.1007,-0.2056,-0.1225,2.5823
1781765490594,2.4194,-3.0082,0.1039,-0.6878,0.5402,2.7474
1781765490614,2.4181,-3.0146,1.2435,-0.8756,1.174,3.0627
1781765490634,3.0776,-2.652,1.9412,-0.8749,1.5389,3.2811
1781765490654,3.8268,-1.2802,2.1653,-0.7851,1.6881,3.2167
1781765490674,4.2869,0.1833,2.2613,-0.6268,1.649,2.9026
1781765490694,4.3584,1.3727,2.2959,-0.3896,1.4509,2.4311
1781765490713,4.2647,2.1854,2.2825,-0.0561,1.1647,1.9217
1781765490734,3.9475,2.4159,1.9021,0.2395,0.8571,1.5266
1781765490754,3.7302,2.3829,1.3403,0.4478,0.5569,1.2834
1781765490774,3.5849,2.5113,0.8057,0.5789,0.3223,1.1751
1781765490794,3.5819,2.5568,0.2328,0.5421,0.2083,1.1455
1781765490814,3.6827,2.7947,-0.1844,0.3984,0.0763,1.1173
1781765490833,3.7952,3.1582,-0.1865,0.2461,-0.014,1.0909
1781765490853,4.139,3.3264,0.0336,0.1334,-0.0056,0.9983
1781765490874,4.5998,3.3682,0.3315,0.0936,0.1359,0.88
1781765490894,4.9024,3.5297,0.5781,0.0954,0.3496,0.715
1781765490914,5.0611,3.6836,0.4991,0.0273,0.6102,0.4693
1781765490934,5.1884,3.5002,0.3317,-0.0418,0.8742,0.2422
1781765490954,5.1301,3.2311,0.0596,-0.0623,1.0626,0.1207
1781765490974,4.9556,3.125,-0.1659,-0.0879,1.1458,0.1197
1781765490994,5.1548,3.0907,-0.24,-0.1274,1.2891,0.1873
1781765491014,5.8602,2.753,-0.402,-0.1584,1.4546,0.1877
1781765491034,6.3039,2.785,-0.5076,-0.2314,1.4767,0.1041
1781765491054,6.7134,3.1254,-0.2915,-0.3745,1.4921,-0.1412
1781765491074,7.0152,2.9605,-0.1333,-0.4818,1.4915,-0.531
1781765491094,7.3346,2.3656,0.3355,-0.4766,1.5102,-0.918
1781765491114,7.4948,1.0159,0.4695,-0.4166,1.4115,-1.1603
1781765491134,8.0582,-1.1414,0.1972,-0.3277,1.0269,-1.2932
1781765491154,8.0659,-3.2335,-0.036,-0.1304,0.2423,-1.1539
1781765491174,7.9339,-3.2725,0.4227,0.2591,-0.8457,-0.886
1781765491194,8.116,-1.3775,1.2509,0.7436,-1.63,-0.8582
1781765491214,7.9793,1.1309,1.4905,1.0636,-1.8478,-1.365
1781765491234,7.5138,2.1498,1.0549,1.0811,-1.7998,-2.2725
1781765491253,6.259,0.5655,0.5244,1.0679,-1.8246,-2.9864
1781765491274,4.2722,-1.8986,0.3624,1.2117,-2.1442,-3.3857
1781765491293,2.5595,-4.0575,0.0156,1.439,-2.7875,-3.6437
1781765491314,1.3423,-6.1052,0.0159,1.72,-3.5086,-3.5247
1781765491334,0.5765,-6.7535,0.0585,1.79,-3.8767,-3.0461
1781765491353,1.09,-5.9127,0.1856,1.4448,-3.6896,-2.6679
1781765491374,1.8794,-4.6426,0.3936,0.7112,-2.8953,-2.6194
1781765491394,2.1421,-4.0625,0.3829,-0.1935,-1.8329,-2.7647
1781765491414,1.6173,-3.8854,0.8947,-0.9889,-0.8192,-2.9127
1781765491434,0.8428,-4.1922,1.4687,-1.5362,-0.0168,-3.0784
1781765491454,0.0063,-4.8003,1.9758,-1.8144,0.551,-3.2143
1781765491474,-0.974,-5.4175,2.2823,-1.8564,0.8801,-3.2813
1781765491494,-1.863,-5.892,2.3068,-1.7776,1.0413,-3.2568
1781765491514,-2.7335,-6.5318,2.1634,-1.6475,1.1506,-3.0886
1781765491534,-3.7597,-6.9937,2.0553,-1.5211,1.2319,-2.8043
1781765491554,-4.7288,-6.989,1.8703,-1.386,1.1926,-2.4921
1781765491574,-5.4429,-6.8833,1.8264,-1.1863,1.0256,-2.181
1781765491594,-5.9545,-6.6868,1.9227,-0.8651,0.8083,-1.8827
1781765491614,-6.1957,-6.6354,1.935,-0.4632,0.6332,-1.5782
1781765491633,-6.616,-6.5801,1.7635,-0.0962,0.487,-1.2578
1781765491653,-6.8466,-6.5143,1.3846,0.2014,0.4039,-0.9446
1781765491674,-6.9386,-6.6773,0.9093,0.3819,0.3734,-0.6114
1781765491694,-7.0327,-6.7277,0.4945,0.4749,0.3913,-0.2784
1781765491714,-6.9002,-6.856,0.0267,0.5039,0.4068,0.0186
1781765491733,-6.7537,-7.1862,-0.4192,0.4779,0.4267,0.322
1781765491754,-6.6791,-7.7611,-0.8133,0.4313,0.4669,0.726
1781765491774,-6.1474,-8.7775,-1.2949,0.3235,0.4172,1.2404
1781765491793,-5.3065,-9.8551,-1.8221,0.0899,0.2387,1.8456
1781765491814,-4.5119,-10.6771,-2.3678,-0.3281,-0.0498,2.5712
1781765491834,-3.9604,-11.153,-2.3174,-0.7485,-0.3391,3.5139
1781765491854,-2.6792,-10.8751,-1.5325,-0.8791,-0.5566,4.5151
1781765491874,-0.8982,-10.0209,-0.6812,-0.8791,-0.5566,4.5151
1781765491894,1.2411,-8.3003,0.0527,-0.3997,-0.9457,5.7053
1781765491913,3.4344,-6.419,0.4156,0.2303,-1.1596,5.6858
1781765491934,4.6533,-5.4987,0.6283,0.7015,-1.2699,5.5824
1781765491954,6.001,-5.4717,0.27,0.8343,-1.1805,5.387
1781765491975,7.2737,-4.4743,0.0555,0.8343,-1.1805,5.387
1781765491994,8.9759,-2.866,0.0443,0.5663,-1.045,4.1202
1781765492014,9.2166,-1.741,0.7466,0.5319,-0.8095,3.3653
1781765492034,9.2318,-1.4192,1.1209,0.4341,-0.3941,2.8698
1781765492053,8.6201,-0.0417,1.0849,0.1017,0.2253,2.4387
1781765492074,8.2761,1.3228,0.8104,0.1017,0.2253,2.4387
1781765492094,7.6068,2.2121,1.041,-1.097,1.645,1.0633
1781765492114,6.6437,2.4431,1.7221,-1.4144,2.165,0.4939
1781765492134,5.496,2.1638,1.9945,-1.562,2.5867,0.1877
1781765492153,4.5738,1.8169,2.122,-1.5281,2.8173,0.1583
1781765492173,3.8041,1.7848,2.1845,-1.5281,2.8173,0.1583
1781765492194,3.4624,2.1993,2.0032,-1.1686,2.6761,0.5072
1781765492214,3.5306,2.8048,1.7771,-0.9586,2.3607,0.5301
1781765492233,3.6572,3.2228,1.4812,-0.7763,1.9694,0.4851
1781765492254,3.4342,3.5324,1.2704,-0.6917,1.6077,0.4454
1781765492274,3.3971,3.6903,1.2028,-0.6543,1.2521,0.4281
1781765492294,3.4539,3.8305,1.3746,-0.6543,1.2521,0.4281
1781765492314,3.8688,4.0371,1.5369,-0.4861,0.7244,0.3573
1781765492334,4.2426,4.0169,1.6532,-0.4431,0.62,0.2425
1781765492354,4.6014,4.0556,1.7933,-0.4431,0.62,0.2425
1781765492374,4.8224,3.8659,1.9077,-0.3106,0.4448,-0.0902
1781765492393,4.8692,3.1672,2.0743,-0.3106,0.4448,-0.0902
1781765492414,4.8325,2.5904,2.1899,-0.1013,0.338,-0.1108
1781765492434,5.2344,2.1533,2.0743,0.2246,0.101,0.003
1781765492453,6.1251,2.0175,1.7894,0.6083,-0.2729,0.1071
1781765492474,7.1656,1.6922,1.2605,0.9831,-0.7235,0.0477
1781765492493,8.4591,0.5362,0.5855,1.2626,-1.1426,-0.2217
1781765492514,8.3697,-0.8606,0.1573,1.3809,-1.5037,-0.6553
1781765492533,7.516,-0.9558,0.2159,1.3756,-1.7239,-0.8239
1781765492553,7.28,0.1772,0.2798,1.424,-1.9386,-0.6363
1781765492574,7.28,0.1772,0.2798,1.4546,-2.0823,-0.6026
1781765492594,6.802,3.042,0.5657,1.3921,-2.0681,-0.8977
1781765492614,6.2555,3.032,0.4603,1.2781,-1.8516,-1.5468
1781765492634,5.4252,1.5096,0.3141,1.0275,-1.618,-2.3461
1781765492654,4.8983,-0.9731,0.4387,0.7104,-1.4191,-2.9483
1781765492674,4.8983,-0.9731,0.4387,0.4866,-1.3509,-3.2514
1781765492694,4.8696,-5.4939,1.654,0.4742,-1.4632,-3.2912
1781765492713,4.0902,-5.2597,1.494,0.6554,-1.5157,-3.0471
1781765492734,2.7174,-4.4624,1.3378,0.5896,-1.4621,-2.9514
1781765492754,1.6956,-3.9878,1.7588,0.2033,-1.2903,-2.9484
1781765492774,1.6956,-3.9878,1.7588,-0.1222,-0.9307,-2.8991
1781765492794,0.8362,-3.8994,2.3745,-0.2663,-0.5453,-2.8603
1781765492814,0.8362,-3.8994,2.3745,-0.2374,-0.2589,-2.8023
1781765492834,0.0111,-3.8591,1.9034,-0.1259,-0.1529,-2.7234
1781765492854,0.0111,-3.8591,1.9034,-0.215,-0.1762,-2.762
1781765492876,-0.9082,-4.3854,1.6803,-0.4785,-0.1535,-2.9399
1781765492894,-0.9082,-4.3854,1.6803,-0.7519,-0.0798,-3.1364
1781765492913,-1.7198,-4.9201,1.8688,-0.9823,-0.005,-3.2523
1781765492934,-2.1631,-5.8625,1.9359,-1.1455,0.1159,-3.2205
1781765492954,-3.1395,-6.5038,2.1492,-1.261,0.2684,-3.0544
1781765492975,-3.6802,-6.9904,2.2578,-1.2787,0.3526,-2.8761
1781765492994,-4.1303,-7.3434,2.4086,-1.1719,0.4356,-2.6501
1781765493014,-4.6383,-7.3163,2.4365,-0.9681,0.5085,-2.4158
1781765493034,-4.9468,-7.3297,2.3427,-0.7073,0.5568,-2.2096
1781765493053,-5.2033,-7.9008,2.2066,-0.4198,0.6739,-1.9192
1781765493075,-5.4012,-8.7675,1.753,-0.1928,0.8243,-1.5929
1781765493094,-5.2917,-9.9343,1.1693,0.0056,0.9538,-1.2022
1781765493114,-5.5358,-10.8023,0.6795,0.2486,0.992,-0.634
1781765493134,-5.7414,-11.3552,0.1266,0.4498,0.8263,0.169
1781765493154,-6.1878,-11.5201,-0.7222,0.476,0.5018,1.2015
1781765493174,-6.6113,-10.7661,-1.2259,0.517,0.1132,2.4408
1781765493194,-6.0921,-9.2986,-0.8994,0.9091,-0.3514,3.662
1781765493214,-4.085,-7.8103,-0.6849,1.6248,-0.7821,4.5093
1781765493234,-1.9659,-5.8316,-0.9407,2.493,-1.1289,4.7329
1781765493254,-0.8812,-4.1008,-1.495,3.0387,-1.4619,4.5369
1781765493275,0.2736,-3.7392,-2.7974,2.9238,-1.4437,4.0721
1781765493293,0.5483,-3.8602,-3.5806,2.2054,-0.9862,3.6656
1781765493314,0.9096,-4.0246,-4.0375,1.0743,-0.351,3.3686
1781765493334,1.1054,-4.1508,-4.1569,-0.2522,0.3512,3.1458
1781765493354,1.5275,-4.5926,-3.3086,-1.4337,0.9452,3.0497
1781765493376,1.8994,-5.1405,-1.8756,-2.2061,1.3487,3.1471
1781765493394,2.5886,-5.589,-0.3854,-2.5453,1.5568,3.4056
1781765493414,3.063,-5.2091,1.1804,-2.4561,1.6,3.6339
1781765493434,3.6281,-3.9363,2.3643,-2.0331,1.386,3.7149
1781765493454,4.1602,-2.477,2.9471,-1.4577,0.9748,3.578
1781765493475,4.7774,-1.398,3.2628,-0.8295,0.4285,3.2938
1781765493494,5.4878,-0.6564,3.3396,-0.1643,-0.0393,2.9751
1781765493514,5.9478,-0.1029,3.3425,0.5026,-0.2813,2.7241
1781765493534,6.212,0.8274,2.7418,0.9427,-0.3292,2.4139
1781765493554,6.3546,1.5975,1.8054,1.0518,-0.2699,2.0376
1781765493576,6.3867,2.1634,1.1003,0.9546,-0.0789,1.6843
1781765493594,5.9714,2.583,0.6637,0.7432,0.1746,1.4
1781765493614,5.8459,2.9203,0.3444,0.4859,0.4108,1.1553
1781765493634,5.9028,3.0798,0.1423,0.2704,0.642,0.8528
1781765493654,5.8878,3.1975,0.0236,0.0961,0.9035,0.6024
1781765493675,5.4784,3.5151,-0.2472,-0.1642,1.1496,0.449
1781765493693,5.0801,3.7091,-0.4629,-0.4874,1.3557,0.3348
1781765493714,4.9581,3.5566,-0.2716,-0.6955,1.4151,0.3106
1781765493734,5.1898,3.3736,0.1119,-0.6778,1.2475,0.3276
1781765493753,5.7238,2.9982,0.4635,-0.4904,0.8373,0.3694
1781765493774,6.315,2.7537,0.7527,-0.206,0.2464,0.3481
1781765493794,7.0184,2.9007,0.8604,0.0553,-0.3506,0.1889
1781765493814,7.7438,2.7789,0.9512,0.1591,-0.8083,-0.1529
1781765493834,8.2575,1.7411,0.991,0.1076,-1.1123,-0.5413
1781765493854,8.7919,-0.006,1.2047,0.1538,-1.3097,-0.7503
1781765493875,8.9887,-1.1022,1.7225,0.5177,-1.5493,-0.583
1781765493894,8.7686,-0.4418,2.0612,1.1144,-1.7995,-0.3041
1781765493914,8.7553,1.8885,1.4499,1.5078,-1.8564,-0.4684
1781765493933,8.605,3.8088,0.4278,1.4768,-1.7807,-1.1735
1781765493953,8.0041,4.1968,-0.3975,1.0995,-1.6546,-2.0973
1781765493974,6.8008,2.74,-0.6408,0.6841,-1.422,-2.7713
1781765493994,5.7265,0.2862,-0.3721,0.4481,-1.2763,-3.1965
1781765494014,4.5274,-1.8263,-0.1096,0.3555,-1.2709,-3.3097
1781765494034,4.0351,-3.9572,-0.1152,0.2603,-1.4275,-3.1979
1781765494054,3.5086,-4.6685,0.3223,0.2345,-1.7519,-3.0323
1781765494075,3.1892,-4.3611,0.8571,0.2291,-2.2165,-3.0021
1781765494094,2.9608,-3.986,1.284,0.2359,-2.5296,-3.105
1781765494114,2.7075,-4.0736,1.7756,0.2306,-2.571,-3.1392
1781765494133,1.872,-3.9936,1.9188,0.0313,-2.2071,-3.0774
1781765494153,1.0154,-3.7776,1.9379,-0.3836,-1.5598,-2.9595
1781765494174,0.4242,-3.7148,1.9248,-0.9011,-0.8003,-2.8212
1781765494194,-0.0033,-3.9166,2.0501,-1.3806,-0.1373,-2.7311
1781765494214,-0.3896,-3.9161,2.3405,-1.6863,0.3217,-2.7813
1781765494234,-0.8086,-4.1337,2.6153,-1.8234,0.6132,-2.8924
1781765494254,-1.3678,-4.661,2.6784,-1.8536,0.8419,-2.9173
1781765494275,-2.163,-5.5176,2.8176,-1.82,1.0459,-2.8402
1781765494294,-2.7802,-6.3502,2.8274,-1.751,1.1742,-2.6891
1781765494314,-3.6045,-6.6952,2.8553,-1.5728,1.2368,-2.4655
1781765494334,-3.9384,-6.9065,2.8079,-1.2811,1.1357,-2.2722
1781765494355,-3.6632,-7.5526,2.5781,-0.9282,0.9725,-2.1329
1781765494376,-3.046,-8.5802,2.2394,-0.5004,0.8654,-1.9936
1781765494394,-2.8649,-9.6458,1.6711,-0.168,0.8304,-1.8558
1781765494414,-3.4017,-10.4239,0.9963,-0.0322,0.8269,-1.5619
1781765494434,-3.8324,-11.1211,0.4334,-0.0431,0.7814,-1.1021
1781765494454,-5.0449,-11.0874,-0.0148,-0.175,0.7497,-0.369
1781765494475,-6.186,-10.2966,-0.0609,-0.175,0.7497,-0.369
1781765494494,-6.8843,-8.7914,0.2313,0.1079,0.4488,1.7055
1781765494514,-6.1916,-7.2546,0.6235,0.7847,0.2016,2.5763
1781765494534,-4.3521,-5.8452,0.1321,1.5446,-0.0523,2.9946
1781765494554,-2.6056,-4.4807,-0.6774,2.1967,-0.2935,2.9688
1781765494574,-2.3525,-3.2669,-1.5144,2.3772,-0.6252,2.5518
1781765494594,-1.9147,-3.4271,-2.5992,2.1558,-0.7882,2.1508
1781765494614,-2.1998,-3.9386,-3.0382,1.6597,-0.5862,2.021
1781765494634,-2.5122,-4.2361,-3.6132,0.727,-0.3197,2.0489
1781765494654,-2.4297,-4.4992,-3.8656,-0.4351,0.0303,2.1589
1781765494674,-1.8657,-4.8369,-3.2546,-1.4804,0.2929,2.3063
1781765494694,-0.9888,-5.2578,-1.7333,-2.1096,0.4405,2.5336
1781765494714,-0.3086,-5.2828,-0.2781,-2.3325,0.5119,2.774
1781765494734,0.3631,-5.017,0.8487,-2.2729,0.5096,2.9775
1781765494754,0.8842,-4.2259,1.7522,-2.0147,0.4004,3.0612
1781765494774,1.4375,-3.3175,2.4506,-1.6101,0.2973,3.0313
1781765494794,1.907,-2.772,2.8555,-1.6101,0.2973,3.0313
1781765494814,2.4457,-2.5794,2.9953,-1.1746,0.2483,3.0064
1781765494834,2.7763,-2.1372,2.8477,-0.781,0.348,3.061
1781765494854,3.7333,-1.7319,2.5656,-0.4841,0.5147,3.1671
1781765494874,4.4226,-0.8191,2.0391,-0.2735,0.6999,3.1916
1781765494894,5.3004,0.1855,1.6428,-0.2079,0.779,3.078
1781765494914,5.5763,1.2708,1.6395,-0.2148,0.7761,2.7404
1781765494934,5.7872,1.5292,1.5429,-0.1912,0.6845,2.3475
1781765494953,6.0228,1.513,1.5383,-0.2172,0.6297,2.023
1781765494974,5.9577,1.4652,1.7956,-0.2736,0.6296,1.7875
1781765494994,5.9826,1.6516,2.1057,-0.291,0.7044,1.6815
1781765495013,6.5414,1.9164,2.1008,-0.1984,0.7601,1.6303
1781765495034,7.1444,2.507,1.6585,-0.0064,0.8515,1.5182
1781765495054,7.2488,3.247,0.8592,0.1592,1.0461,1.3325
1781765495073,7.2994,3.8218,0.2145,0.1398,1.2609,1.1294
1781765495094,7.5822,4.2414,-0.1037,-0.0331,1.3875,0.9115
1781765495114,7.8204,4.4819,-0.1475,-0.2024,1.4477,0.6395
1781765495134,8.2657,4.224,-0.0753,-0.3512,1.401,0.2942
1781765495154,8.9011,3.2785,-0.0093,-0.4538,1.3018,-0.1755
1781765495174,8.8046,2.0411,0.0624,-0.55,1.2504,-0.686
1781765495194,8.1191,1.8906,0.2526,-0.6182,1.315,-0.9244
1781765495214,8.2146,2.7272,0.6888,-0.653,1.4174,-0.8568
1781765495234,8.1939,3.9609,0.8858,-0.6197,1.5413,-1.0032
1781765495254,8.4308,4.2914,0.9911,-0.556,1.7587,-1.4756
1781765495274,8.4308,4.2914,0.9911,-0.5423,2.2918,-2.2163
1781765495294,7.656,0.3651,-0.4759,-0.7365,3.2692,-2.8921
1781765495314,6.7614,-1.5153,-0.7077,-0.8437,4.1296,-3.2509
1781765495334,6.7614,-1.5153,-0.7077,-0.7152,4.5951,-3.2712
1781765495354,6.3785,-2.7215,-1.2548,-0.5624,4.8289,-3.1114
1781765495374,7.0754,-3.8806,-2.1314,-0.5745,5.0529,-3.0306
1781765495394,7.8008,-4.521,-2.0044,-0.4853,5.1854,-3.0772
1781765495414,8.6125,-5.2557,-1.8063,-0.2403,5.4505,-3.3841
1781765495434,8.6407,-6.2223,-1.4393,0.1968,5.7601,-3.763
1781765495454,7.5051,-7.5241,-1.8987,0.7455,6.0169,-3.8108
1781765495474,5.2277,-8.1867,-3.5378,1.165,5.7202,-3.5549
1781765495494,2.9734,-7.6921,-5.0151,1.4276,5.0193,-3.1288
1781765495514,1.2549,-6.812,-6.0294,1.6348,4.072,-2.69
1781765495534,-0.206,-5.8548,-6.5899,1.8808,2.877,-2.2873
1781765495554,-0.6356,-4.9384,-6.2771,2.1992,1.9079,-1.9889
1781765495574,-0.3196,-4.8887,-6.5258,2.2535,1.3921,-1.7708
1781765495594,0.3117,-5.1007,-6.0331,2.0008,1.6026,-1.4895
1781765495613,0.5542,-4.8338,-5.7165,1.5039,2.0562,-1.26
1781765495634,0.9351,-4.4998,-4.4793,1.2504,2.4689,-1.1455
1781765495654,1.2207,-4.404,-3.7239,1.3272,2.5501,-1.1547
1781765495674,1.2646,-4.4464,-4.4256,1.38,2.2497,-1.2459
1781765495694,0.875,-4.5379,-5.636,1.1895,1.6342,-1.2968
1781765495714,0.5449,-4.6083,-6.5702,0.8139,0.8865,-1.3892
1781765495734,0.2366,-4.5523,-5.8701,0.5983,0.4223,-1.4748
1781765495754,-0.006,-4.9109,-4.8858,0.5702,0.1114,-1.4667
1781765495774,-0.3489,-5.2318,-4.3091,0.562,0.2375,-1.2238
1781765495794,-0.4518,-5.5484,-4.7756,0.3838,0.385,-1.0242
1781765495813,0.5959,-5.9738,-4.7648,0.1228,0.438,-1.0147
1781765495834,0.897,-6.0158,-4.1233,-0.4321,0.2956,-1.1208
1781765495854,0.321,-4.6009,-2.5654,-1.0728,0.2155,-1.177
1781765495874,-0.3041,-3.0674,-0.8083,-1.5964,0.2587,-1.107
1781765495894,0.5691,-2.2289,1.8303,-1.6007,0.5726,-1.1593
1781765495914,0.7579,-0.9224,3.6158,-1.3891,0.8379,-1.2442
1781765495934,0.5794,0.1562,4.0454,-1.1227,0.9284,-1.3746
1781765495954,0.457,0.4575,3.7999,-0.715,0.8373,-1.4748
1781765495973,0.0732,0.0705,2.1186,-0.4073,0.6659,-1.4025
1781765495994,-0.237,-0.5182,-0.3839,-0.3459,0.4366,-1.2308
1781765496014,-0.7312,-0.4871,-2.4082,-0.4783,0.0275,-1.0253
1781765496034,-0.8951,-0.2368,-2.9602,-0.5926,-0.6106,-0.7888
1781765496054,-0.433,-0.2035,-2.8333,-0.6245,-1.1559,-0.6972
1781765496073,0.2546,-0.5695,-2.9041,-0.6142,-1.4176,-0.7697
1781765496094,0.6314,-0.9778,-3.5501,-0.7289,-1.3693,-0.9527
1781765496114,0.0905,-1.0951,-5.3296,-1.216,-1.2628,-1.1478
1781765496134,-1.2664,-1.8316,-7.4243,-1.948,-1.4402,-0.9892
1781765496154,-2.1452,-2.8237,-8.3458,-2.5446,-2.0717,-0.5272
1781765496173,-2.3414,-3.2938,-7.9948,-2.7974,-3.0371,-0.0154
1781765496194,-2.1677,-3.7567,-7.259,-2.7643,-4.0613,0.4223
1781765496214,-2.0882,-3.9022,-6.571,-2.6909,-4.952,0.8367
1781765496233,-1.9191,-3.9756,-5.9189,-2.7773,-5.642,1.2506
1781765496254,-1.2335,-4.4808,-4.9799,-3.1245,-5.7867,1.7667
1781765496274,-0.2868,-6.015,-3.9506,-3.7634,-5.4694,2.4709
1781765496294,1.0087,-7.1613,-1.4106,-4.2335,-4.7284,3.0663
1781765496314,2.7312,-7.5516,1.1412,-4.2642,-3.9,3.3323
1781765496334,4.6147,-7.6235,3.8407,-3.7121,-3.3347,3.236
1781765496354,5.7692,-6.5829,5.9246,-2.9415,-2.56,3.0441
1781765496374,5.9495,-7.0387,5.3313,-2.6196,-2.031,3.1892
1781765496394,6.1134,-7.0083,4.8496,-2.5683,-1.8925,3.6557
1781765496414,7.427,-6.1955,5.0019,-2.587,-2.1343,4.1406
1781765496433,9.3824,-5.2072,5.992,-2.4348,-2.7741,4.5054
1781765496454,11.7389,-3.1931,7.8157,-2.0192,-3.4875,4.5538
1781765496474,14.8952,-1.3373,9.8393,-1.3653,-3.7939,3.9962
1781765496494,17.6096,0.8168,11.6186,-0.4364,-3.2004,2.7112
1781765496514,18.204,2.9542,12.3484,0.5672,-1.9719,1.2098
1781765496534,17.4233,3.5799,11.6325,1.3543,-0.5453,-0.0481
1781765496554,15.126,3.9055,9.7642,1.8771,0.7204,-0.8962
1781765496574,12.5655,4.1283,7.6425,2.148,1.6839,-1.5076
1781765496594,10.0991,4.4923,5.6896,2.3208,2.1786,-2.0221
1781765496614,8.0684,4.1978,3.9496,2.4443,2.0628,-2.3929
1781765496634,6.4473,3.4005,2.4754,2.5571,1.5659,-2.5649
1781765496654,5.4561,2.0229,1.2251,2.6407,0.7215,-2.4985
1781765496674,4.9349,0.8123,0.0372,2.4925,-0.3009,-2.3488
1781765496694,4.8284,-0.4504,-0.8909,1.9809,-1.3274,-2.2416
1781765496714,5.1567,-1.5857,-0.8494,1.3579,-2.1322,-2.2476
1781765496734,6.1352,-2.7444,0.3149,0.9249,-2.543,-2.3958
1781765496754,6.6405,-3.8473,1.786,0.8044,-2.5459,-2.6915
1781765496773,6.1426,-4.3899,2.8721,1.0174,-2.2816,-3.1138
1781765496794,5.391,-4.9346,3.4827,1.0174,-2.2816,-3.1138
1781765496814,4.7323,-5.7083,3.2423,1.7679,-1.6069,-3.854
1781765496834,3.6805,-6.5901,1.8552,1.6734,-0.8714,-4.162
1781765496854,2.1918,-7.2825,1.0807,1.4873,-0.1311,-4.2845
1781765496874,0.5034,-7.9228,0.3778,1.3499,0.3977,-4.1692
1781765496895,-0.6273,-8.7347,-0.2579,1.3499,0.3977,-4.1692
1781765496914,-1.8718,-8.3828,-0.994,1.0294,0.5374,-3.3117
1781765496933,-2.6394,-7.6845,-1.2614,0.8672,0.3442,-2.9698
1781765496954,-2.8399,-7.5867,-1.2963,0.8054,0.036,-2.7542
1781765496974,-2.8779,-7.7571,-1.1111,0.848,-0.3005,-2.6516
1781765496994,-3.3699,-7.7554,-0.9025,0.848,-0.3005,-2.6516
1781765497014,-3.8109,-7.8756,-0.7924,1.0075,-0.8023,-2.4872
1781765497034,-3.9322,-8.2732,-0.7999,1.0169,-0.8397,-2.4494
1781765497054,-3.8258,-9.0534,-1.0427,0.8717,-0.6619,-2.5025
1781765497073,-3.7291,-10.6403,-1.437,0.4945,-0.2413,-2.5332
1781765497094,-5.4957,-10.8969,-2.1619,0.4945,-0.2413,-2.5332
1781765497113,-7.3929,-10.624,-2.6911,-0.7895,0.6828,-1.3224
1781765497134,-8.8777,-10.0131,-2.6369,-1.2285,0.8444,-0.0468
1781765497154,-9.4661,-8.797,-2.3679,-1.3405,0.6322,1.2684
1781765497174,-8.4058,-7.5591,-1.655,-1.103,0.1325,2.1931
1781765497195,-6.2124,-6.7894,-1.2089,-1.103,0.1325,2.1931
1781765497214,-4.0568,-6.2974,-0.9344,0.26,-0.8309,2.5781
1781765497234,-2.5058,-5.7695,-1.468,0.26,-0.8309,2.5781
1781765497254,-2.0893,-5.3122,-2.8389,1.5716,-1.4589,2.2561
1781765497274,-2.6429,-5.3928,-4.7596,1.5716,-1.4589,2.2561
1781765497294,-3.3933,-5.6231,-6.1497,0.9339,-1.8367,2.1366
1781765497314,-2.559,-6.3114,-5.8767,-0.4557,-1.6782,2.3469
1781765497334,-0.9301,-7.154,-4.0296,-2.1022,-1.2842,2.699
1781765497354,0.7139,-7.8253,-1.6727,-3.495,-0.7884,2.9705
1781765497374,1.6358,-8.5864,0.4291,-4.4413,-0.2023,3.1472
1781765497395,1.6358,-8.5864,0.4291,-4.9425,0.5761,3.3133
1781765497414,2.2102,-7.7775,3.769,-4.9827,1.3016,3.5193
1781765497434,2.5841,-6.616,4.2635,-4.6666,1.8053,3.7004
1781765497454,3.0115,-5.3124,4.3689,-4.239,1.9894,3.7561
1781765497474,3.2222,-4.2682,4.4953,-3.8189,1.8683,3.6905
1781765497495,3.2222,-4.2682,4.4953,-3.4279,1.6021,3.5401
1781765497513,3.6093,-2.8361,5.3012,-3.0419,1.251,3.3507
1781765497534,3.9212,-1.9507,5.6239,-2.5963,0.846,3.1025
1781765497554,4.2266,-1.4113,6.046,-2.1459,0.4524,2.7758
1781765497574,4.3868,-0.7913,6.3851,-1.6687,0.1585,2.4827
1781765497595,4.3868,-0.7913,6.3851,-1.1838,0.0362,2.2753
1781765497614,4.6666,-0.0443,5.9673,-0.9001,0.0958,2.1225
1781765497634,4.8559,0.1663,5.8159,-0.8118,0.2787,1.9834
1781765497653,4.8559,0.1663,5.8159,-0.8414,0.5793,1.8931
1781765497674,5.0824,0.6674,5.967,-0.9141,0.9082,1.8305
1781765497696,5.0824,0.6674,5.967,-0.9258,1.1451,1.7941
1781765497714,5.1711,1.3901,6.5364,-0.8618,1.3538,1.8026
1781765497734,5.6755,1.5998,6.6408,-0.717,1.4785,1.8467
1781765497754,6.559,1.6667,6.7031,-0.5292,1.5639,1.8637
1781765497774,6.559,1.6667,6.7031,-0.256,1.6032,1.8189
1781765497795,7.7648,1.8992,6.43,0.0106,1.628,1.6176
1781765497814,8.651,2.0156,5.8998,0.18,1.6538,1.3291
1781765497834,9.4536,1.7291,5.4372,0.3342,1.5936,1.0566
1781765497853,10.0601,1.7484,5.271,0.6237,1.4228,0.8308
1781765497874,10.3647,2.6382,5.1083,1.073,1.3304,0.6306
1781765497896,10.6548,3.9982,4.4388,1.4409,1.3879,0.2245
1781765497914,10.486,5.3819,3.4449,1.6423,1.4236,-0.4558
1781765497934,10.0005,5.2529,2.4503,1.8315,1.3675,-1.2058
1781765497953,9.0606,4.0916,1.6034,2.1656,1.1298,-1.7769
1781765497974,8.0059,2.4964,0.4263,2.5851,0.5159,-2.1015
1781765497995,7.8214,0.7881,-0.7012,2.9627,-0.3199,-2.3169
1781765498013,7.9658,-0.449,-1.8613,3.1337,-1.2471,-2.5383
1781765498034,7.7159,-1.6515,-2.69,2.9084,-2.2087,-2.6772
1781765498054,7.184,-2.8733,-2.635,2.5212,-3.1585,-2.7581
1781765498074,7.6184,-4.117,-0.9076,2.5443,-3.7168,-2.9965
1781765498096,8.4806,-5.1134,0.2621,2.8599,-3.5624,-3.5387
1781765498114,7.0207,-4.8683,-0.1318,2.7085,-2.7352,-4.1951
1781765498134,4.3015,-5.5142,-1.714,1.8115,-1.6348,-4.5552
1781765498154,1.9384,-5.9167,-2.2517,0.8171,-0.6387,-4.4048
1781765498174,0.5597,-6.1878,-2.3508,0.0427,0.0022,-4.0942
1781765498194,-0.6755,-6.5712,-2.0927,-0.4451,0.2687,-3.6244
1781765498214,-2.0032,-6.3991,-1.4444,-0.6505,0.1576,-3.1407
1781765498234,-2.6615,-6.1248,-0.8273,-0.7072,-0.2311,-2.8148
1781765498254,-2.8349,-6.196,-0.0457,-0.5748,-0.6293,-2.6495
1781765498273,-3.1339,-6.2326,0.7225,-0.3461,-0.957,-2.5225
1781765498294,-3.6189,-6.2035,1.0805,-0.1802,-1.144,-2.4338
1781765498314,-3.7751,-6.6352,1.2008,-0.1038,-1.1057,-2.3183
1781765498333,-3.9326,-7.3164,1.3537,-0.1133,-0.9597,-2.1146
1781765498353,-4.1972,-7.9311,1.3682,-0.2343,-0.6725,-1.8206
1781765498374,-4.5101,-8.1039,1.4001,-0.425,-0.4061,-1.5187
1781765498396,-4.855,-8.1422,1.4372,-0.6414,-0.0924,-1.2109
1781765498414,-5.0792,-8.3044,1.5033,-0.8283,0.2521,-0.9066
1781765498434,-5.431,-8.3714,1.6877,-0.8559,0.5635,-0.5391
1781765498454,-5.4522,-8.3577,1.8629,-0.6555,0.7313,-0.2182
1781765498474,-4.9829,-9.068,1.5066,-0.4157,0.9307,0.0636
1781765498494,-5.201,-9.4692,0.6545,-0.3849,1.0858,0.3647
1781765498514,-5.4431,-9.7115,-0.234,-0.4816,1.172,0.821
1781765498534,-5.9153,-9.6534,-0.8167,-0.5795,1.1149,1.5287
1781765498554,-6.1249,-9.3512,-1.0494,-0.5406,0.8487,2.4793
1781765498574,-5.6023,-8.2286,-1.2102,-0.3482,0.3405,3.335
1781765498594,-3.9647,-6.6151,-1.3976,-0.0481,-0.3515,3.761
1781765498614,-1.7557,-5.2415,-1.6539,0.3145,-1.0923,3.6505
1781765498634,-0.1245,-4.317,-1.903,0.5601,-1.7975,3.2269
1781765498654,0.7402,-4.046,-2.293,0.4367,-2.1384,2.7684
1781765498674,1.0562,-4.815,-2.3095,-0.1085,-1.9714,2.5604
1781765498693,1.1579,-5.6351,-1.995,-1.0367,-1.4264,2.6221
1781765498714,1.3821,-6.1517,-1.1613,-2.1219,-0.5139,2.9242
1781765498734,1.7715,-6.2349,-0.0007,-3.1182,0.676,3.3365
1781765498754,2.3421,-5.7338,1.3098,-3.8088,1.7944,3.6117
1781765498774,2.813,-4.8773,2.5721,-4.1195,2.6016,3.6786
1781765498796,3.436,-4.0791,3.4542,-4.1654,3.0533,3.4738
1781765498814,3.8636,-3.1576,3.8774,-4.0588,3.1769,3.0398
1781765498834,3.8206,-2.6364,4.1594,-3.8624,3.0242,2.581
1781765498854,3.553,-2.2603,4.687,-3.4805,2.7069,2.2438
1781765498874,3.096,-2.0247,5.074,-2.9788,2.3165,2.1023
1781765498897,2.881,-1.7728,5.3197,-2.4335,1.7851,2.1211
1781765498914,2.7351,-1.1268,5.4448,-1.8923,1.2482,2.1671
1781765498934,3.0469,-0.4736,5.5117,-1.3936,0.7116,2.153
1781765498954,3.4825,0.1446,5.5223,-0.9514,0.285,2.0698
1781765498974,3.934,0.7952,5.4981,-0.5767,-0.0263,1.9427
1781765498993,4.3479,1.2295,5.392,-0.3223,-0.0427,1.8322
1781765499014,4.6853,1.5125,5.0978,-0.2202,0.1224,1.7312
1781765499034,4.9044,1.8617,5.0177,-0.1544,0.3825,1.6766
1781765499053,5.2376,2.0389,4.8905,-0.0792,0.6426,1.6374
1781765499074,5.6416,2.1656,4.6988,0.0433,0.8251,1.6042
1781765499094,6.0839,2.2912,4.5074,0.2392,0.8396,1.6052
1781765499114,6.755,2.3608,4.1729,0.4566,0.745,1.6016
1781765499133,7.8554,2.5085,3.7874,0.6706,0.5136,1.5015
1781765499154,8.8149,2.9506,3.4799,0.8577,0.2947,1.232
1781765499174,9.9228,3.096,3.0462,1.0126,0.09,0.8307
1781765499194,10.6726,3.1676,2.6956,1.1693,-0.0579,0.4129
1781765499214,11.1372,2.9889,2.1356,1.3107,-0.2111,0.074
1781765499234,11.3191,3.333,1.6678,1.4561,-0.3328,-0.2374
1781765499253,11.2223,4.4103,1.3928,1.5694,-0.3168,-0.6961
1781765499274,10.7509,5.4624,0.8646,1.54,-0.2247,-1.4628
1781765499294,9.8437,5.1766,0.2872,1.3893,-0.1105,-2.3533
1781765499313,8.4908,3.4869,-0.1415,1.2857,-0.0232,-3.0271
1781765499334,7.0417,1.2501,-0.4295,1.2634,-0.1371,-3.3596
1781765499354,5.8752,-1.2942,-0.6011,1.2369,-0.4976,-3.3823
1781765499374,5.2089,-3.4694,-0.3651,1.2912,-1.1166,-3.2258
1781765499394,4.5715,-4.3494,0.3557,1.5335,-1.9777,-2.9267
1781765499414,4.8821,-4.8944,0.9383,1.8308,-2.917,-2.7905
1781765499434,6.2135,-5.4303,1.5718,2.1841,-3.491,-2.9136
1781765499454,7.0783,-5.2514,1.5877,2.2979,-3.3601,-3.3181
1781765499474,6.3223,-4.6625,0.6154,1.7354,-2.6181,-3.8964
1781765499493,4.8602,-4.9,-0.3029,0.7164,-1.5259,-4.274
1781765499514,3.6175,-5.7553,-0.308,-0.2377,-0.3171,-4.2212
1781765499534,2.7027,-6.5176,-0.1327,-1.0982,0.9522,-3.9274
1781765499554,1.8633,-6.9971,-0.3965,-1.7709,1.9635,-3.7648
1781765499574,0.9346,-7.0016,0.0283,-2.0126,2.4548,-3.7564
1781765499594,0.0135,-7.4354,0.3872,-1.8885,2.5254,-3.814
1781765499613,0.0135,-7.4354,0.3872,-1.8885,2.5254,-3.814
1781765499634,-2.3916,-8.154,0.6174,-0.9352,1.9113,-3.7016
1781765499654,-3.3025,-8.8603,0.5203,-0.3099,1.508,-3.4449
1781765499674,-4.26,-9.258,0.1571,-0.3099,1.508,-3.4449
1781765499694,-4.9227,-9.3792,-0.2945,0.5924,0.5663,-2.8481
1781765499714,-5.3674,-9.4965,-0.7578,0.7702,0.2174,-2.5836
1781765499734,-5.8834,-9.5617,-1.1201,0.7702,0.2174,-2.5836
1781765499754,-6.4129,-9.8556,-1.256,0.7555,0.0094,-2.3581
1781765499774,-7.0242,-10.3747,-1.2505,0.6753,-0.0518,-2.1507
1781765499793,-8.144,-10.6964,-0.9284,0.6734,-0.0233,-1.7622
1781765499815,-8.7289,-10.8295,-0.9795,0.8179,0.0143,-1.058
1781765499834,-8.8879,-11.1119,-1.5336,1.029,0.0443,-0.1646
1781765499854,-8.5824,-11.1752,-2.5064,1.0672,0.0873,0.8367
1781765499874,-7.7263,-11.0496,-3.1786,0.818,0.0686,1.8513
1781765499894,-6.2807,-10.9475,-3.1728,0.4764,-0.1114,2.8006
1781765499915,-6.2807,-10.9475,-3.1728,0.2975,-0.46,3.6482
1781765499934,-2.6095,-10.0914,-2.1707,0.4186,-0.9509,4.3499
1781765499954,-1.2928,-9.186,-1.9696,0.7611,-1.4326,4.879
1781765499974,0.6529,-8.7394,-2.1272,0.9895,-1.8033,5.1077
1781765499994,1.9941,-8.0665,-2.0414,0.9549,-1.9482,5.0787
1781765500015,1.9941,-8.0665,-2.0414,0.617,-1.7816,4.8401
1781765500034,3.8775,-7.6304,-0.9901,0.0003,-1.3849,4.4961
1781765500054,4.4534,-7.8869,0.2996,-0.596,-0.9577,4.1491
1781765500074,4.8007,-7.8225,1.664,-0.942,-0.539,3.9594
1781765500094,5.1471,-7.0289,2.6834,-0.9196,-0.0838,3.9623
1781765500115,5.1471,-7.0289,2.6834,-0.5604,0.3299,4.0912
1781765500134,6.3494,-3.5597,2.2109,0.0034,0.5552,4.1465
1781765500154,6.8172,-2.0002,1.1143,0.412,0.612,4.0358
1781765500174,6.8172,-2.0002,1.1143,0.4702,0.6487,3.761
1781765500194,7.1397,0.0687,0.5848,0.328,0.6735,3.3498
1781765500214,7.1397,0.0687,0.5848,0.1936,0.72,2.937
1781765500234,7.4456,0.5494,0.8222,0.1473,0.7677,2.4506
1781765500254,7.3274,1.2279,0.8915,0.1809,0.8781,1.9265
1781765500274,7.0773,1.5477,0.6157,0.0915,1.0907,1.5019
1781765500294,6.4553,1.9539,0.0353,-0.243,1.3658,1.1902
1781765500315,5.7429,2.2068,-0.2819,-0.7374,1.7626,1.0213
1781765500334,5.4575,2.4997,-0.0096,-1.1128,2.1449,0.9382
1781765500354,5.3589,2.5343,0.4895,-1.2737,2.4746,0.9391
1781765500374,5.3353,2.7482,0.7454,-1.3298,2.6431,0.9061
1781765500394,5.303,3.0421,0.8488,-1.3186,2.6562,0.9016
1781765500413,5.27,3.2809,0.8977,-1.2513,2.4352,0.951
1781765500433,5.3925,3.5271,1.0735,-1.0684,1.9441,1.0564
1781765500454,6.1655,3.4352,1.3011,-0.7763,1.1421,1.1001
1781765500474,7.8396,2.9891,1.6051,-0.3575,0.2672,1.0446
1781765500494,9.087,3.2024,2.0329,0.1859,-0.4322,0.9752
1781765500514,10.1715,3.6632,1.9209,0.5501,-0.819,0.6095
1781765500534,11.5462,3.1241,1.314,0.5816,-1.0147,-0.015
1781765500554,12.6103,1.7463,1.0475,0.6126,-1.0526,-0.5299
1781765500574,12.5932,1.0703,1.0429,0.763,-1.0837,-0.7242
1781765500594,12.2277,2.1574,0.9709,0.9825,-1.0255,-0.8617
1781765500615,11.697,4.4109,0.6754,1.0316,-0.7622,-1.5286
1781765500634,10.811,5.0821,0.0292,0.7891,-0.5333,-2.6577
1781765500654,9.0858,3.8149,-0.1037,0.5457,-0.3333,-3.6335
1781765500674,7.4734,1.0495,0.1152,0.5325,-0.2296,-4.2335
1781765500694,6.2963,-2.3033,0.1637,0.6525,-0.3522,-4.4649
1781765500714,5.1347,-4.8368,0.3963,0.8879,-0.6526,-4.2515
1781765500733,3.671,-5.878,0.3952,1.0162,-1.1478,-3.6967
1781765500754,3.1961,-6.2009,0.1879,1.0596,-1.7642,-3.0828
1781765500774,4.4978,-6.0485,0.1926,1.0192,-2.2866,-2.8631
1781765500793,4.5773,-4.8095,0.144,0.735,-2.367,-3.1091
1781765500815,4.3418,-4.4968,0.2452,0.2617,-2.1518,-3.4906
1781765500833,3.9623,-5.3843,0.5695,-0.287,-1.6605,-3.6969
1781765500854,3.4776,-6.2865,0.9405,-0.8263,-1.0562,-3.7485
1781765500874,2.8844,-6.763,1.3286,-1.2807,-0.5644,-3.7925
1781765500894,2.2406,-6.9753,1.8674,-1.5543,-0.23,-3.9755
1781765500915,1.7628,-7.7833,2.3324,-1.6595,0.0502,-4.1872
1781765500934,0.8796,-8.4971,2.607,-1.6545,0.3245,-4.3167
1781765500954,-0.2152,-9.5206,2.7541,-1.5771,0.6782,-4.2159
1781765500974,-1.6716,-10.238,2.7288,-1.4683,1.0672,-3.9394
1781765500994,-2.5856,-10.7728,2.607,-1.2479,1.4143,-3.5561
1781765501014,-3.7788,-10.6027,2.3763,-0.9385,1.6919,-3.1038
1781765501034,-4.5594,-10.2229,1.8694,-0.5883,1.7489,-2.7213
1781765501054,-4.7639,-10.1809,1.3803,-0.2038,1.6855,-2.4948
1781765501074,-5.1351,-10.2832,0.7718,0.1308,1.5038,-2.413
1781765501093,-5.6782,-10.778,0.2445,0.4751,1.1835,-2.4326
1781765501115,-6.3988,-11.7653,0.5389,1.072,0.9507,-2.2037
1781765501134,-7.2467,-13.3778,0.0469,1.5209,0.9191,-1.4531
1781765501154,-8.3781,-14.3009,-1.4011,1.4983,1.0079,-0.2327
1781765501174,-9.4663,-14.2296,-2.989,1.0311,0.8892,1.4209
1781765501194,-9.6935,-13.2659,-4.0088,0.4831,0.5094,3.2034
1781765501215,-8.0404,-12.1267,-3.7102,0.2596,-0.0711,4.6067
1781765501234,-4.5759,-10.9776,-2.8967,0.5873,-0.8431,5.368
1781765501254,-1.767,-9.2108,-1.9829,1.3648,-1.5652,5.4574
1781765501274,0.0527,-7.8149,-1.7663,2.0351,-2.0862,5.1197
1781765501294,0.8402,-7.5944,-2.0269,2.2924,-2.0607,4.745
1781765501315,1.2955,-7.6559,-2.1874,2.0866,-1.643,4.5007
1781765501334,1.8145,-7.8164,-2.6279,1.311,-1.02,4.3597
1781765501353,2.882,-8.1407,-3.1007,0.0502,-0.2246,4.2688
1781765501374,3.8551,-8.0454,-2.6815,-1.1929,0.587,4.2408
1781765501394,4.8992,-8.1586,-1.2684,-2.0353,1.1767,4.4035
1781765501414,5.6105,-7.8073,0.0862,-2.3927,1.6159,4.6826
1781765501433,6.1116,-6.2369,1.0653,-2.3667,1.6654,4.8199
1781765501454,6.8524,-4.5451,1.6441,-2.1791,1.3604,4.7928
1781765501474,7.6733,-2.9383,2.0329,-1.9605,0.9236,4.4831
1781765501494,8.5555,-1.863,2.8824,-1.6292,0.6306,3.9103
1781765501515,8.6531,-0.3728,3.7454,-1.1582,0.4503,3.2434
1781765501534,8.8173,0.742,4.4046,-0.5689,0.4937,2.4537
1781765501554,8.1274,1.4764,4.4196,-0.0976,0.6928,1.7412
1781765501574,7.3052,1.377,3.5245,0.0423,1.0286,1.2381
1781765501594,6.2293,1.3527,2.604,-0.0994,1.4226,1.0174
1781765501616,5.3384,1.5688,1.994,-0.3747,1.7746,1.0419
1781765501634,4.6859,2.0131,1.7512,-0.6469,1.998,1.1295
1781765501653,4.4289,2.4877,1.8265,-0.7922,2.0791,1.1997
1781765501674,4.4414,2.8204,2.0959,-0.7653,1.9635,1.2237
1781765501694,4.4867,3.1609,2.2862,-0.5916,1.7245,1.2298
1781765501715,4.6581,3.4242,2.2383,-0.5916,1.7245,1.2298
1781765501734,4.7573,3.8385,2.1242,-0.1467,0.921,1.3525
1781765501754,5.355,3.9316,1.9331,-0.0221,0.3667,1.3963
1781765501773,6.8473,3.658,1.9536,0.0943,-0.2255,1.3153
1781765501794,8.4971,3.2956,2.0386,0.218,-0.7592,1.1149
1781765501816,9.7463,3.0745,2.3982,0.218,-0.7592,1.1149
1781765501834,10.8432,3.1259,2.7858,0.4333,-1.1557,0.4341
1781765501854,12.2994,2.7607,2.9104,0.5114,-0.8808,-0.2528
1781765501873,12.9507,1.9935,2.69,0.5744,-0.462,-0.9162
1781765501894,12.3326,0.7317,2.1202,0.6695,-0.1456,-1.1912
1781765501915,11.2864,1.1708,1.8438,0.6695,-0.1456,-1.1912
1781765501934,10.6353,3.2662,1.4828,1.247,-0.1359,-1.5789
1781765501954,9.8251,4.4052,0.6108,1.2758,-0.2802,-2.4296
1781765501974,8.7979,3.5754,-0.0022,1.2366,-0.5708,-3.3722
1781765501994,7.587,1.2257,-0.2124,1.3218,-0.9295,-4.0394
1781765502015,6.5918,-1.7414,-0.4546,1.3218,-0.9295,-4.0394
1781765502034,5.4612,-4.2055,-0.329,1.4506,-2.1882,-4.3806
1781765502054,5.0956,-6.717,0.2331,1.3633,-3.2147,-4.0649
1781765502073,5.7272,-7.9706,1.4618,1.3633,-3.2147,-4.0649
1781765502094,6.2171,-7.5456,2.5738,1.8023,-4.1769,-3.9894
1781765502114,5.2239,-6.3483,2.2452,1.8023,-4.1769,-3.9894
1781765502133,4.1821,-5.8611,1.2228,1.5755,-3.5221,-4.1908
1781765502154,3.4575,-6.3076,0.6892,0.7828,-2.3904,-4.2761
1781765502173,2.4999,-6.8599,0.1997,-0.2005,-1.0112,-4.0089
1781765502194,1.7485,-6.3624,0.5819,-1.168,0.2224,-3.634
1781765502214,1.5904,-6.6347,1.1207,-1.6898,0.8173,-3.552
1781765502234,1.0446,-7.2663,1.7362,-1.8686,0.8685,-3.6194
1781765502253,-0.0546,-7.8658,2.1429,-1.8075,0.7944,-3.802
1781765502274,-1.1757,-8.7389,2.2107,-1.6709,0.6682,-3.9147
1781765502294,-1.8472,-9.704,2.2892,-1.5412,0.6204,-3.8321
1781765502316,-2.7667,-10.2236,2.3626,-1.408,0.6619,-3.6087
1781765502334,-3.9821,-10.05,2.4274,-1.2773,0.8337,-3.2713
1781765502354,-4.3818,-10.2259,2.4629,-1.1059,0.9718,-2.9195
1781765502374,-4.5356,-10.7408,2.1541,-0.7781,1.0756,-2.7175
1781765502393,-4.701,-11.6072,1.618,-0.4313,1.0955,-2.6252
1781765502414,-4.9779,-12.8523,1.3224,-0.1187,1.1204,-2.6324
1781765502434,-5.8059,-14.5429,0.6419,0.2841,1.2608,-2.5217
1781765502454,-7.3682,-15.2459,-0.5964,0.5797,1.425,-1.974
1781765502473,-9.0973,-15.1044,-1.9999,0.5911,1.5267,-0.8975
1781765502494,-10.3801,-13.7324,-2.8358,0.3386,1.3302,0.8522
1781765502514,-8.8907,-12.0975,-2.1388,0.1201,0.6514,3.0033
1781765502534,-4.6914,-10.6901,-1.5262,0.4011,-0.22,4.7516
1781765502554,-1.0313,-8.7554,-1.1418,1.1613,-1.1134,5.548
1781765502574,1.1842,-7.4867,-1.2934,2.2082,-1.7904,5.3859
1781765502594,2.5424,-6.9809,-2.1226,3.1179,-2.047,4.7098
1781765502614,1.2914,-6.1191,-3.7931,3.6606,-1.9637,3.9107
1781765502633,1.2914,-6.1191,-3.7931,3.1642,-1.6497,3.2886
1781765502654,-0.4057,-6.4041,-5.589,1.5433,-0.8763,3.2878
1781765502674,-0.6269,-6.9769,-6.0084,-0.6033,0.2123,3.589
1781765502694,0.4254,-7.769,-4.1907,-2.3961,1.2977,3.9179
1781765502713,1.3418,-8.1238,-1.5025,-3.4281,2.0904,4.2198
1781765502734,2.2294,-7.9156,0.2018,-3.8833,2.498,4.445
1781765502754,3.0302,-6.905,1.3799,-3.8246,2.3634,4.3833
1781765502774,3.8397,-5.7912,2.7773,-3.2297,1.8974,4.1955
1781765502794,4.4809,-5.0225,3.5454,-2.3549,1.2529,4.0418
1781765502814,4.9619,-4.1021,3.693,-1.4503,0.471,3.9862
1781765502834,5.4516,-2.9027,3.6474,-0.6254,-0.1946,3.9738
1781765502853,6.3154,-1.6174,3.3987,0.0058,-0.5937,3.8572
1781765502874,7.2844,-0.0649,2.8963,0.3183,-0.6813,3.4022
1781765502894,8.1556,0.9293,2.3628,0.303,-0.5429,2.6636
1781765502913,8.5604,1.8121,2.176,0.1727,-0.3007,1.8934
1781765502934,7.9989,2.4865,2.0966,-0.0401,0.1234,1.3455
1781765502954,7.413,2.5967,1.8869,-0.4174,0.6619,0.9475
1781765502974,6.6782,2.4672,1.9255,-0.8086,1.2617,0.7154
1781765502994,6.0846,2.3472,2.3141,-1.0966,1.816,0.5894
1781765503014,5.6244,2.1998,2.6581,-1.2406,2.2343,0.5225
1781765503033,5.1935,2.1668,2.982,-1.1901,2.4187,0.5743
1781765503054,5.0337,2.0599,3.1079,-0.9915,2.2801,0.7077
1781765503074,5.5395,1.8474,3.0167,-0.7131,1.8338,0.7985
1781765503093,6.2506,1.6362,2.9354,-0.3587,1.206,0.8592
1781765503114,7.2028,1.6723,2.9524,0.0404,0.4687,0.8809
1781765503134,8.2797,2.1988,2.9329,0.4222,-0.2061,0.747
1781765503153,9.0949,2.8907,2.837,0.7478,-0.6758,0.4457
1781765503174,9.3445,3.8763,2.7947,0.9957,-0.837,0.0551
1781765503194,9.2739,4.6744,2.6846,1.1265,-0.7158,-0.4733
1781765503214,9.0512,5.1851,2.3171,1.152,-0.4614,-1.1735
1781765503234,8.4182,4.7236,1.5764,1.0959,-0.1437,-1.8809
1781765503254,7.6593,3.3312,0.7668,1.0479,0.0357,-2.4416
1781765503274,6.8318,1.6587,0.1471,1.0431,0.0213,-2.8403
1781765503294,6.2318,-0.2445,-0.4051,1.0912,-0.1745,-2.9868
1781765503314,5.4058,-1.5985,-0.5594,1.1529,-0.5477,-2.9402
1781765503334,4.7349,-2.2497,-0.4665,1.1955,-1.061,-2.8648
1781765503354,4.2355,-2.7183,-0.1849,1.2151,-1.6246,-2.7983
1781765503374,3.95,-3.3593,0.4444,1.2676,-2.146,-2.8131
1781765503394,4.4365,-4.3766,1.1039,1.4572,-2.5275,-3.0176
1781765503414,4.4341,-4.9579,1.5367,1.6951,-2.5497,-3.2932
1781765503434,3.1883,-4.8834,1.1968,1.6588,-2.2232,-3.4931
1781765503454,1.6217,-4.8071,0.4691,1.195,-1.6972,-3.5457
1781765503474,0.6235,-5.1914,0.032,0.5193,-0.9627,-3.4107
1781765503494,-0.5366,-5.3655,-0.1577,-0.2187,-0.1035,-3.0879
1781765503514,-1.6329,-5.2557,0.0252,-0.7804,0.5592,-2.8225
1781765503534,-2.222,-5.2424,0.3109,-1.0982,0.8944,-2.6441
1781765503554,-2.449,-5.6176,0.5241,-1.2528,1.0421,-2.5808
1781765503574,-2.8758,-5.9497,0.7357,-1.2929,1.0728,-2.5554
1781765503593,-3.2839,-6.4406,0.8988,-1.2282,1.0088,-2.5177
1781765503614,-3.7926,-6.9524,0.9948,-1.1175,0.9038,-2.3965
1781765503634,-3.9404,-7.6529,0.8912,-1.0219,0.8079,-2.3059
1781765503654,-3.307,-9.1316,0.581,-1.0284,0.817,-2.3264
1781765503674,-2.9582,-10.9738,-0.1286,-1.302,0.9748,-2.3049
1781765503694,-4.2388,-11.7166,-0.6325,-1.7743,1.2374,-1.979
1781765503714,-6.0115,-11.5496,-0.625,-2.047,1.3644,-1.1366
1781765503734,-7.1508,-10.4808,0.0818,-1.8201,1.0662,0.0062
1781765503753,-6.6299,-9.0242,0.9859,-0.9927,0.3878,0.9567
1781765503774,-4.4442,-8.207,1.4694,0.302,-0.3272,1.3314
1781765503794,-1.8663,-7.8588,1.0919,1.824,-0.9355,1.1015
1781765503814,-0.5651,-7.8612,0.1017,3.2707,-1.441,0.6415
1781765503834,-0.9276,-8.3839,-1.8709,3.9003,-1.6966,0.3046
1781765503854,-2.4833,-9.2598,-4.373,3.2359,-1.999,0.2076
1781765503874,-4.3729,-8.9168,-6.1315,1.7497,-1.7893,0.7357
1781765503894,-4.8356,-8.5015,-6.4584,-0.1534,-1.1377,1.4473
1781765503914,-4.4673,-8.1943,-5.346,-1.6436,-0.5687,2.0251
1781765503934,-3.0702,-7.0763,-2.5006,-2.2569,-0.4021,2.1927
1781765503954,-1.6097,-6.8238,-0.7055,-2.2972,-0.2202,2.0128
1781765503974,-1.108,-6.5396,0.193,-2.1411,-0.0953,1.7776
1781765503994,-1.3331,-6.5719,0.2556,-2.1308,0.068,1.7561
1781765504014,-1.7202,-6.5894,-0.3543,-2.4701,0.303,1.9536
1781765504034,-1.5787,-6.5456,-0.7918,-3.1423,0.536,2.2381
1781765504054,-0.9473,-6.5688,-0.7601,-4.0094,0.7412,2.3872
1781765504074,-0.1573,-6.9301,-0.1823,-4.9074,0.8572,2.4276
1781765504094,0.2964,-7.7808,0.7642,-5.7012,0.9145,2.4591
1781765504114,0.5002,-8.7894,2.2598,-6.2255,0.969,2.5664
1781765504134,0.4463,-9.2859,4.0629,-6.4087,1.0498,2.7629
1781765504154,0.4193,-9.1048,5.6326,-6.2989,1.2253,2.9991
1781765504174,0.3577,-8.4093,6.6447,-6.1046,1.4853,3.2177
1781765504194,0.415,-7.649,7.1634,-5.9419,1.8854,3.3248
1781765504214,0.4835,-6.8702,7.5655,-5.7912,2.2981,3.3039
1781765504235,0.4753,-6.467,7.8477,-5.7912,2.2981,3.3039
1781765504254,0.3965,-6.178,8.2957,-5.3143,2.7474,3.0623
1781765504274,0.397,-5.9916,8.7872,-4.7613,2.6727,2.9977
1781765504294,0.4261,-5.5275,8.9347,-4.0911,2.2987,2.9857
1781765504314,0.5848,-5.0558,8.7375,-3.4376,1.7018,3.019
1781765504334,1.1582,-4.454,8.6841,-2.8167,0.9185,3.051
1781765504354,2.0855,-3.549,8.976,-2.1559,0.1085,3.0202
1781765504374,2.963,-2.4934,9.3127,-1.4789,-0.613,2.9632
1781765504394,3.8227,-1.5054,9.6498,-0.8876,-1.0376,2.8991
1781765504414,4.5542,-0.6821,10.1127,-0.3547,-1.0767,2.7512
1781765504434,5.3339,0.1807,10.6004,-0.3547,-1.0767,2.7512
1781765504453,6.1558,0.8539,10.5695,0.2688,-0.7628,2.4872
1781765504474,6.9487,1.4223,9.6225,1.4425,0.4338,1.5501
1781765504494,7.2148,1.2401,8.3573,1.8671,0.9691,1.1296
1781765504514,6.8751,0.9344,6.8841,2.2342,1.2673,0.9902
1781765504534,7.0643,0.6289,5.0186,2.2342,1.2673,0.9902
1781765504554,7.7473,0.1355,3.0101,2.2165,1.1727,0.9996
1781765504574,8.8265,0.2821,1.8262,2.0029,0.9034,0.9255
1781765504594,9.6074,1.6064,1.6647,2.0029,0.9034,0.9255
1781765504614,9.7492,3.4132,1.5893,2.0376,0.5048,0.6947
1781765504636,9.7492,3.4132,1.5893,2.1918,0.1733,0.1867
1781765504654,8.513,4.5474,0.8329,2.2889,-0.0806,-0.5821
1781765504674,7.4427,3.0008,0.5908,2.2348,-0.3208,-1.3835
1781765504694,6.545,0.8997,0.7241,2.1813,-0.5343,-1.8998
1781765504714,6.2498,-0.9529,0.816,2.3862,-1.0069,-2.0986
1781765504734,6.3036,-2.1205,0.244,2.9096,-1.7904,-2.0703
1781765504753,6.5058,-2.4031,-0.722,3.4999,-2.6596,-2.0874
1781765504773,7.031,-2.9206,-1.3275,3.8884,-3.3329,-2.5066
1781765504793,5.8926,-2.8569,-2.7873,4.1674,-3.5591,-2.9765
1781765504814,4.703,-3.9802,-3.853,3.6315,-3.4554,-3.4963
1781765504835,4.703,-3.9802,-3.853,2.3595,-3.0447,-3.9005
1781765504854,3.4638,-6.3349,-1.7813,1.183,-2.1643,-4.0214
1781765504874,2.8062,-6.8372,-1.0381,0.584,-1.1932,-4.012
1781765504894,1.709,-6.9002,-1.5062,0.3714,-0.4375,-3.997
1781765504914,0.2175,-7.0894,-2.1181,0.0734,0.1193,-4.0405
1781765504935,0.2175,-7.0894,-2.1181,-0.3753,0.4929,-3.9665
1781765504954,-1.9026,-7.7728,-2.1536,-0.771,0.7327,-3.7904
1781765504974,-2.761,-7.9904,-1.9858,-0.988,0.8254,-3.4567
1781765504993,-3.5422,-7.721,-1.777,-1.0773,0.7178,-2.965
1781765505014,-4.0814,-7.1893,-1.6203,-1.0943,0.498,-2.4638
1781765505035,-4.0814,-7.1893,-1.6203,-1.0884,0.2311,-2.0426
1781765505054,-4.1967,-6.259,-1.176,-1.0527,-0.0147,-1.7275
1781765505074,-4.333,-6.0452,-0.9041,-1.0153,-0.1731,-1.5458
1781765505094,-4.333,-6.0452,-0.9041,-0.9522,-0.2606,-1.413
1781765505114,-5.238,-6.0581,-0.3809,-0.8739,-0.2397,-1.2343
1781765505135,-5.238,-6.0581,-0.3809,-0.7646,-0.1012,-0.9805
1781765505154,-5.7582,-6.0568,-0.3001,-0.6414,0.0594,-0.6606
1781765505174,-6.1525,-6.2002,-0.4523,-0.5307,0.193,-0.2808
1781765505194,-6.4797,-6.1742,-0.6754,-0.456,0.214,0.1423
1781765505214,-6.5259,-6.1669,-1.0576,-0.4794,0.1725,0.5593
1781765505235,-6.3321,-6.3597,-1.3991,-0.6227,0.0905,0.9786
1781765505254,-6.0352,-6.5177,-1.5508,-0.8609,-0.0012,1.4106
1781765505274,-5.4758,-6.9709,-1.511,-1.1849,-0.0405,1.836
1781765505294,-4.7094,-7.7316,-1.2715,-1.5541,-0.0876,2.2821
1781765505314,-3.672,-8.3631,-0.8655,-1.9083,-0.154,2.6563
1781765505334,-2.7108,-8.9713,-0.5054,-2.2773,-0.2533,3.0364
1781765505354,-1.7328,-9.4152,-0.1079,-2.6307,-0.3756,3.4248
1781765505373,-0.4938,-9.6189,0.465,-2.9062,-0.4924,3.7585
1781765505394,0.6727,-9.4362,1.3074,-3.0213,-0.5914,4.0701
1781765505414,1.669,-8.6401,2.2838,-2.9584,-0.6372,4.2608
1781765505436,2.6985,-7.4891,3.2626,-2.7454,-0.581,4.2923
1781765505454,3.697,-6.1152,4.0059,-2.4847,-0.3847,4.1128
1781765505474,4.6601,-5.3898,4.2921,-2.3365,-0.0353,3.757
1781765505494,5.1802,-4.972,4.5941,-2.2874,0.4324,3.3873
1781765505514,5.2649,-4.5333,4.8313,-2.2804,0.9446,3.0596
1781765505535,5.1072,-4.0674,5.0329,-2.2905,1.3994,2.846
1781765505554,4.8653,-3.4796,5.1664,-2.2903,1.7731,2.6996
1781765505574,4.7245,-2.8308,5.2417,-2.2661,2.059,2.5706
1781765505594,4.5343,-1.8851,5.4075,-2.1557,2.2096,2.437
1781765505614,4.3448,-0.7598,5.5031,-1.965,2.2384,2.2511
1781765505636,4.2165,0.4044,5.462,-1.7434,2.1666,1.9609
1781765505654,3.9511,1.3012,5.3935,-1.5227,2.0637,1.6398
1781765505674,3.5736,1.9091,5.3003,-1.2832,2.0222,1.3503
1781765505694,3.2738,2.1867,5.128,-1.0509,2.0669,1.165
1781765505714,2.851,2.3795,4.7569,-0.933,2.1315,1.0619
1781765505736,2.4143,2.557,4.4215,-0.8721,2.2123,1.0453
1781765505753,2.199,2.7732,4.3225,-0.7691,2.2191,1.0673
1781765505774,2.3322,2.8175,4.1744,-0.6001,2.1938,1.0917
1781765505794,2.4385,3.0101,3.8981,-0.43,2.0293,1.0959
1781765505813,2.4476,3.2275,3.6618,-0.2668,1.792,1.1039
1781765505834,2.7221,3.1504,3.5187,-0.0961,1.4922,1.1009
1781765505854,3.4116,3.0008,3.511,0.2094,1.2538,1.0761
1781765505874,3.9206,3.2549,3.1768,0.5759,1.0221,1.0322
1781765505894,4.5418,3.2646,2.5504,0.8764,0.7486,0.9338
1781765505914,5.1492,3.2339,1.9339,1.137,0.557,0.8104
1781765505935,5.6796,3.1318,1.0143,1.3429,0.471,0.713
1781765505954,6.3086,3.0211,-0.1166,1.4202,0.3703,0.5794
1781765505974,7.0354,3.3243,-1.016,1.4575,0.2424,0.3667
1781765505994,7.7775,3.3054,-1.7933,1.4316,0.195,-0.0074
1781765506013,8.4448,2.6445,-2.6839,1.31,0.1384,-0.4974
1781765506034,8.4131,1.8299,-3.1969,1.2194,0.0681,-0.9017
1781765506054,8.3713,0.835,-3.5979,1.1117,0.034,-1.2654
1781765506074,8.0902,-0.3964,-4.0474,0.9187,-0.0654,-1.4877
1781765506094,7.4661,-1.0828,-4.2412,0.669,-0.2802,-1.5873
1781765506115,6.8966,-1.364,-3.8226,0.4825,-0.6543,-1.6698
1781765506135,6.3029,-1.1376,-2.5325,0.6296,-1.0931,-1.7583
1781765506154,5.6417,-0.1145,-1.3598,0.9947,-1.4707,-1.9508
1781765506174,4.5996,1.1713,-1.0271,1.2619,-1.6024,-2.3628
1781765506194,3.4698,1.3881,-1.5071,1.1291,-1.5343,-2.8913
1781765506214,2.5561,0.0638,-1.9102,0.723,-1.315,-3.2839
1781765506236,1.9729,-1.801,-1.7659,0.3488,-1.0863,-3.4117
1781765506254,1.5632,-3.9482,-1.3929,0.0329,-1.0219,-3.1163
1781765506273,0.8647,-5.2712,-0.8815,-0.2548,-1.1458,-2.4774
1781765506293,0.5492,-5.0915,-0.3125,-0.4699,-1.5098,-1.7787
1781765506315,1.1882,-4.0623,0.4443,-0.6336,-1.9466,-1.3694
1781765506336,2.4205,-2.9003,1.2179,-0.7376,-2.2074,-1.4356
1781765506354,3.3949,-2.203,1.934,-0.9215,-2.1676,-1.923
1781765506375,3.9226,-2.4077,2.619,-1.1401,-1.6897,-2.5756
1781765506394,3.2493,-3.4034,3.4628,-1.3335,-0.871,-2.9891
1781765506414,1.6025,-4.5075,3.8378,-1.5214,0.1121,-3.1261
1781765506434,-0.5104,-5.2384,3.6412,-1.706,1.1663,-3.0392
1781765506453,-2.2854,-5.7656,3.1001,-1.7324,1.7906,-2.8446
1781765506474,-3.8428,-5.8545,2.6976,-1.4951,1.7814,-2.5889
1781765506494,-5.0208,-5.8065,2.3581,-1.0706,1.2729,-2.361
1781765506514,-5.7568,-5.6967,2.2255,-0.5794,0.6385,-2.1603
1781765506534,-6.3101,-5.7555,2.309,-0.1117,0.1601,-1.9403
1781765506554,-6.9091,-6.0439,2.2368,0.2704,-0.0229,-1.6323
1781765506574,-7.7436,-6.5862,1.7826,0.4239,0.0179,-1.2339
1781765506594,-8.609,-6.7699,1.4297,0.511,0.2214,-0.7648
1781765506614,-8.9596,-7.0715,1.2051,0.6889,0.4632,-0.1719
1781765506637,-8.8357,-7.4217,0.342,0.7445,0.5708,0.4304
1781765506654,-8.4829,-7.5116,-0.5826,0.6134,0.6307,0.9801
1781765506674,-7.5857,-7.6066,-1.0118,0.3581,0.7057,1.3958
1781765506694,-6.3628,-8.0392,-0.9499,0.1675,0.8025,1.7308
1781765506714,-5.3284,-8.8857,-0.7883,0.0834,0.8595,2.1844
1781765506733,-4.1376,-9.9252,-1.0107,0.0185,0.8221,2.7688
1781765506754,-3.0687,-10.7265,-1.5494,-0.1646,0.5795,3.4796
1781765506774,-1.723,-11.1147,-1.8702,-0.4559,0.2199,4.1889
1781765506794,0.1601,-10.996,-1.3926,-0.5813,-0.1743,4.7542
1781765506814,2.4099,-10.2362,-0.2689,-0.3097,-0.5572,5.1148
1781765506834,4.8734,-9.1746,0.6595,0.3513,-0.8877,5.2031
1781765506854,6.5938,-7.2401,0.7541,1.1238,-1.1813,5.0949
1781765506874,7.6549,-5.3742,0.0993,1.6289,-1.2938,4.8767
1781765506894,8.2999,-3.6071,-0.8074,1.5801,-1.1348,4.5423
1781765506914,9.2824,-1.6678,-1.865,1.0049,-0.7052,3.8945
1781765506934,9.6783,0.0549,-1.6233,0.2862,-0.1348,3.0629
1781765506954,9.4425,0.6906,-0.6775,-0.3265,0.6408,2.2667
1781765506974,8.7012,1.2943,0.1658,-0.7768,1.4606,1.5734
1781765506994,7.3812,1.8331,0.6165,-0.7768,1.4606,1.5734
1781765507014,6.0745,1.8805,0.7557,-1.3419,2.7037,0.7501
1781765507034,4.9612,1.9743,0.7079,-1.5659,3.0502,0.5774
1781765507054,4.1287,2.0153,0.7797,-1.5659,3.0502,0.5774
1781765507074,3.4606,2.0337,0.9532,-1.7254,3.1842,0.5078
1781765507094,3.0011,2.2112,1.2406,-1.7808,3.0823,0.5401
1781765507114,2.7299,2.6107,1.5619,-1.7128,2.7761,0.6458
1781765507134,2.743,2.934,1.898,-1.549,2.3403,0.7506
1781765507154,2.9604,3.2295,2.2329,-1.3495,1.8813,0.8085
1781765507174,3.226,3.3803,2.5236,-1.1072,1.4419,0.7941
1781765507193,3.3595,3.5357,2.6315,-0.8481,1.0994,0.7588
1781765507214,3.5052,3.6138,2.6172,-0.6743,0.9222,0.7297
1781765507234,3.7774,3.5172,2.7153,-0.6003,0.8744,0.7116
1781765507254,4.2273,3.3928,2.8382,-0.4928,0.8878,0.7115
1781765507274,4.9791,3.5754,2.6564,-0.2494,0.8196,0.7195
1781765507294,5.7067,3.6781,2.0893,0.1238,0.6575,0.6484
1781765507314,6.1978,3.5957,1.3457,0.4792,0.4292,0.5081
1781765507333,6.6681,3.3718,0.4976,0.7513,0.1585,0.3754
1781765507354,7.452,2.8339,-0.2982,0.9067,-0.1813,0.242
1781765507374,8.2951,2.0274,-0.6659,0.9459,-0.5613,0.035
1781765507394,8.8259,1.3823,-0.697,0.9649,-0.9006,-0.1986
1781765507414,9.3713,0.639,-0.7398,0.9852,-1.1827,-0.4609
1781765507434,9.5351,0.0549,-0.6936,0.9977,-1.3864,-0.7908
1781765507454,9.5351,0.0549,-0.6936,1.0358,-1.4243,-1.056
1781765507474,8.0826,1.3491,-0.8707,1.0672,-1.3551,-1.2411
1781765507494,8.0826,1.3491,-0.8707,1.0547,-1.2689,-1.5191
1781765507514,6.2369,2.2305,-1.214,0.9057,-1.2097,-2.0081
1781765507534,5.1424,1.2259,-1.0272,0.7095,-1.1905,-2.5124
1781765507553,5.1424,1.2259,-1.0272,0.5077,-1.2342,-2.9388
1781765507575,3.7671,-3.0099,-0.1419,0.3415,-1.3228,-3.2353
1781765507594,3.7671,-3.0099,-0.1419,0.2497,-1.4278,-3.2092
1781765507614,2.5382,-4.0282,0.6242,0.2261,-1.5902,-2.8709
1781765507634,1.6327,-3.8461,1.0761,0.242,-1.7912,-2.4885
1781765507654,1.6269,-3.3965,1.4817,0.3154,-2.0175,-2.2461
1781765507673,2.0279,-2.9143,1.6454,0.3341,-2.1628,-2.2486
1781765507694,2.4323,-2.7754,1.6012,0.2167,-2.1352,-2.4019
1781765507714,2.3553,-2.8668,1.6331,-0.0746,-1.89,-2.553
1781765507734,1.9546,-3.3108,1.9619,-0.4647,-1.4316,-2.6419
1781765507754,1.3201,-3.6933,2.4681,-0.8283,-0.8659,-2.7144
1781765507774,0.5775,-4.0802,2.8806,-1.1304,-0.2867,-2.7634
1781765507794,-0.262,-4.2885,3.2573,-1.3152,0.1687,-2.8319
1781765507814,-1.028,-4.5405,3.5277,-1.347,0.5217,-2.8746
1781765507834,-1.8957,-4.739,3.6124,-1.2705,0.7632,-2.8653
1781765507854,-2.6169,-5.4152,3.5247,-1.1045,0.9189,-2.7981
1781765507874,-3.3986,-6.1674,3.4359,-0.822,0.9179,-2.6152
1781765507894,-4.1893,-6.9356,3.1625,-0.5001,0.6609,-2.3849
1781765507914,-4.7591,-7.7992,3.0151,-0.1513,0.3208,-2.1307
1781765507934,-5.4442,-8.3571,2.8215,0.0742,0.135,-1.8794
1781765507954,-6.2772,-8.9034,2.5995,0.1423,0.1904,-1.6128
1781765507974,-7.435,-9.379,2.4124,0.1394,0.4997,-1.1745
1781765507994,-8.4079,-10.0479,1.7279,0.0062,0.8289,-0.4453
1781765508014,-8.6475,-10.5082,1.0444,-0.1377,0.9562,0.4477
1781765508034,-8.0332,-10.6182,0.5397,-0.2399,0.8561,1.3505
1781765508054,-7.2173,-10.3296,0.2923,-0.2272,0.6463,2.2096
1781765508074,-5.8179,-9.767,0.5313,0.0912,0.3295,2.955
1781765508094,-4.0518,-8.9334,0.7934,0.7873,-0.0289,3.5232
1781765508114,-1.8528,-8.0523,0.2857,1.6094,-0.421,3.8642
1781765508133,-0.2609,-6.5706,-0.9553,2.1748,-0.7758,3.9041
1781765508154,0.8147,-5.4519,-2.5036,2.1883,-0.9762,3.7531
1781765508173,1.3421,-4.5448,-3.5702,1.69,-0.8418,3.5726
1781765508194,2.0759,-3.9545,-3.8206,0.8873,-0.5051,3.3102
1781765508213,2.5988,-3.3058,-3.2268,0.0909,-0.0798,2.9888
1781765508234,2.6662,-3.0129,-1.9384,-0.4936,0.3295,2.7454
1781765508254,2.613,-2.8105,-0.6073,-0.7645,0.6678,2.6037
1781765508274,2.2986,-2.2581,0.6128,-0.6951,0.8838,2.5933
1781765508294,2.3671,-1.5338,1.1501,-0.4383,0.9461,2.6026
1781765508314,2.8404,-0.6576,1.1153,-0.1394,0.8518,2.5026
1781765508334,3.3951,0.1668,0.7728,0.087,0.6687,2.3122
1781765508354,3.8729,0.5905,0.4131,0.2069,0.5424,2.1074
1781765508374,4.1991,1.0381,0.1279,0.2192,0.5418,1.9461
1781765508394,4.5993,1.3565,-0.1971,0.0985,0.6227,1.8046
1781765508414,4.9168,1.9335,-0.4222,-0.1009,0.7663,1.6102
1781765508434,5.1789,2.281,-0.4107,-0.3393,0.9282,1.4012
1781765508454,5.2391,2.6118,-0.1819,-0.5217,1.0887,1.1699
1781765508474,5.0708,2.8997,0.2373,-0.5638,1.1717,0.9587
1781765508494,4.9023,2.9479,0.6037,-0.5095,1.228,0.7869
1781765508514,4.7981,2.7006,0.72,-0.4234,1.2459,0.6598
1781765508534,4.6141,2.4722,0.7537,-0.2615,1.2561,0.6387
1781765508555,4.4734,2.4211,0.6431,-0.0108,1.1984,0.6888
1781765508573,4.575,2.4721,0.3778,0.285,1.0938,0.7601
1781765508594,4.9089,2.5592,-0.0468,0.5385,0.9413,0.7993
1781765508614,5.6044,2.9132,-0.7284,0.7317,0.6963,0.7163
1781765508634,6.5109,3.1006,-1.5886,0.75,0.3677,0.4071
1781765508655,6.818,2.8543,-2.2161,0.5911,0.1072,0.1098
1781765508674,6.9406,2.5335,-2.4748,0.3285,-0.1201,-0.152
1781765508694,7.2606,1.5595,-2.4115,0.0987,-0.3343,-0.3892
1781765508714,7.6094,0.3258,-1.9634,0.0612,-0.5761,-0.4654
1781765508734,7.974,-0.5693,-1.3691,0.2602,-0.9135,-0.3558
1781765508754,8.066,0.1734,-0.8342,0.6129,-1.3087,-0.2888
1781765508774,8.1184,2.2024,-0.8949,0.8543,-1.589,-0.6313
1781765508794,7.6718,3.6569,-1.1509,0.8786,-1.6315,-1.297
1781765508814,6.7025,3.794,-1.4736,0.6771,-1.5857,-2.0114
1781765508834,5.5896,2.3979,-1.5643,0.3851,-1.5445,-2.5767
1781765508855,4.5899,-0.0354,-1.2417,0.1764,-1.5172,-2.8349
1781765508874,3.6828,-2.478,-0.7502,0.1106,-1.5699,-2.6648
1781765508894,2.6668,-3.327,-0.1482,0.1347,-1.7486,-2.2488
1781765508914,2.2638,-2.8402,0.2519,0.0965,-2.0157,-1.9147
1781765508934,2.2495,-1.9203,0.7009,-0.0155,-2.1407,-1.8318
1781765508955,2.3662,-1.2267,1.2411,-0.1649,-2.0986,-1.9765
1781765508973,2.9708,-1.6102,1.6872,-0.3089,-1.9078,-2.2537
1781765508994,2.9219,-2.1145,1.994,-0.5326,-1.5467,-2.4943
1781765509013,2.262,-2.5134,1.9949,-0.9465,-1.0224,-2.6808
1781765509034,1.3777,-3.0426,2.3332,-1.3803,-0.3831,-2.7891
1781765509054,0.2652,-3.4702,2.891,-1.6915,0.2731,-2.8383
1781765509075,-0.774,-4.0819,3.3271,-1.8075,0.8478,-2.7982
1781765509094,-1.7358,-4.477,3.5979,-1.7572,1.257,-2.6849
1781765509114,-2.593,-4.6283,3.5461,-1.6296,1.486,-2.5875
1781765509134,-3.1737,-4.955,3.3047,-1.4159,1.4425,-2.5586
1781765509156,-3.7365,-5.483,3.1372,-1.4159,1.4425,-2.5586
1781765509174,-4.3517,-6.3311,3.0685,-0.7102,0.7753,-2.4335
1781765509194,-5.3152,-6.8097,3.1294,-0.3266,0.4271,-2.1738
1781765509213,-6.2062,-7.3439,2.8306,-0.0901,0.2287,-1.8412
1781765509234,-7.0946,-7.7036,2.6753,0.0688,0.2508,-1.4287
1781765509254,-7.3091,-8.6089,2.3144,0.0688,0.2508,-1.4287
1781765509274,-7.6059,-9.3657,1.5794,0.2163,0.549,-0.3702
1781765509294,-8.0141,-9.9859,0.7041,0.1263,0.5848,0.3835
1781765509313,-8.0237,-10.2753,-0.0448,0.005,0.4234,1.3342
1781765509334,-7.6177,-9.6635,-0.0074,0.1247,0.114,2.3465
1781765509355,-6.0164,-8.9286,0.7766,0.1247,0.114,2.3465
1781765509374,-3.5933,-7.9379,0.7951,0.787,-0.1771,3.2603
1781765509394,-0.7539,-6.6359,-0.3902,2.5255,-0.8756,3.864
1781765509414,0.508,-5.1554,-2.3971,2.7121,-1.234,3.6711
1781765509434,1.0592,-4.3268,-4.1107,2.7121,-1.234,3.6711
1781765509454,1.5216,-3.7744,-4.3921,2.2157,-1.3064,3.5146
1781765509474,2.4228,-3.0556,-3.6865,1.3266,-0.9379,3.3572
1781765509494,3.2713,-2.0415,-2.6016,-0.2874,0.0539,2.4576
1781765509513,3.1344,-1.4784,-1.4536,-0.2874,0.0539,2.4576
1781765509534,2.547,-1.4607,-0.5567,-0.8232,0.5334,1.9462
1781765509555,1.7316,-1.3124,0.3258,-1.1729,1.0136,1.6774
1781765509574,1.3607,-1.0884,0.8407,-1.3255,1.4009,1.6399
1781765509594,1.3131,-0.6215,1.306,-1.3374,1.6,1.6831
1781765509613,1.555,-0.3308,1.6364,-1.2149,1.5499,1.6984
1781765509633,1.7425,-0.1898,1.7934,-0.9921,1.3238,1.7002
1781765509654,1.9688,0.019,1.877,-0.7333,1.0164,1.718
1781765509674,2.385,0.3078,1.8148,-0.4371,0.6909,1.7736
1781765509694,2.9602,0.6511,1.5499,-0.0946,0.3691,1.8144
1781765509714,3.4474,1.2125,1.1007,0.1972,0.1058,1.7956
1781765509734,3.854,1.6113,0.5695,0.3344,-0.0074,1.686
1781765509755,3.854,1.6113,0.5695,0.302,0.0066,1.5666
1781765509774,4.2034,2.2259,0.2645,0.1807,0.1106,1.4863
1781765509794,4.6835,2.3847,0.3652,0.0732,0.2396,1.4045
1781765509813,5.0749,2.5289,0.33,0.0598,0.3396,1.2573
1781765509835,5.1912,2.5291,0.1393,0.1488,0.3797,1.0766
1781765509855,5.1912,2.5291,0.1393,0.2962,0.3295,0.9607
1781765509874,5.493,2.6891,-0.9483,0.391,0.1652,0.8674
1781765509894,5.7053,2.7867,-1.2592,0.4452,-0.0804,0.8117
1781765509914,6.1732,2.9063,-1.2838,0.4695,-0.4097,0.7969
1781765509934,6.8771,3.1601,-0.962,0.4871,-0.7592,0.7473
1781765509954,7.641,3.0402,-0.7137,0.5925,-1.1188,0.5602
1781765509974,7.9338,2.6151,-0.6587,0.7817,-1.4009,0.2487
1781765509994,7.9078,1.7867,-1.1703,0.9765,-1.6049,-0.0445
1781765510014,7.9078,1.7867,-1.1703,1.0112,-1.7658,-0.2359
1781765510034,7.9206,0.9606,-1.6734,0.9098,-1.9862,-0.3652
1781765510054,8.2145,0.1694,-1.6537,0.8045,-2.2588,-0.5095
1781765510074,7.7845,0.1308,-0.9583,0.8691,-2.4527,-0.592
1781765510094,6.9195,1.2627,-0.3131,1.0217,-2.5957,-0.7516
1781765510114,6.0734,2.2587,-0.3542,1.0493,-2.667,-1.0731
1781765510134,5.3388,2.4105,-0.5157,0.9258,-2.6974,-1.4549
1781765510154,4.7726,1.2753,-0.6613,0.6499,-2.6387,-1.7395
1781765510174,4.0839,-0.1157,-0.4585,0.3952,-2.5468,-1.7929
1781765510194,3.4583,-1.1605,0.1314,0.3117,-2.5466,-1.5476
1781765510214,2.8355,-1.0106,1.0185,0.402,-2.6141,-1.1762
1781765510234,2.844,-0.1177,1.2611,0.3601,-2.6318,-1.0079
1781765510254,3.249,0.6705,1.1181,0.0701,-2.4483,-1.1422
1781765510274,3.5586,0.7134,1.264,-0.3267,-2.1426,-1.4193
1781765510294,3.5721,-0.0358,1.813,-0.6632,-1.8332,-1.6105
1781765510314,3.4605,-1.1453,2.2539,-0.9778,-1.5043,-1.702
1781765510334,3.2036,-1.9864,2.7842,-1.3016,-1.1653,-1.6645
1781765510354,2.7598,-2.1075,3.3919,-1.661,-0.7881,-1.6169
1781765510374,2.4981,-1.9707,4.0031,-2.0481,-0.3826,-1.6724
1781765510394,2.1319,-1.879,4.7556,-2.373,0.1122,-1.8281
1781765510414,1.7924,-2.1503,5.429,-2.5946,0.5509,-2.0674
1781765510434,1.2177,-2.5517,6.1385,-2.6938,0.939,-2.3387
1781765510454,0.518,-3.1293,6.678,-2.6794,1.2948,-2.6341
1781765510474,-0.0181,-4.2573,6.9267,-2.5484,1.5926,-2.9243
1781765510494,-0.4114,-6.0047,6.8629,-2.3134,1.8782,-3.1339
1781765510513,-1.4979,-7.5227,6.8469,-1.8574,2.1704,-3.1443
1781765510534,-2.8457,-8.5136,6.7626,-1.1555,2.3606,-3.0691
1781765510554,-3.8539,-9.5615,5.4382,-0.567,2.2802,-3.0268
1781765510574,-5.4666,-10.855,3.4852,-0.353,2.0231,-2.7113
1781765510594,-7.7438,-11.5611,2.1255,-0.2778,1.6823,-1.8594
1781765510614,-9.052,-11.6634,1.4703,-0.1457,1.1708,-0.6535
1781765510634,-9.6019,-10.5945,1.6463,0.1761,0.6785,0.6036
1781765510654,-8.9175,-9.0386,2.3244,0.8249,0.2731,1.6804
1781765510674,-7.2868,-7.4844,2.892,1.8965,0.0745,2.4631
1781765510694,-4.9394,-6.7077,2.098,3.091,-0.1547,2.8068
1781765510714,-2.8896,-5.9852,-0.0103,3.8988,-0.5169,2.7357
1781765510734,-2.4258,-5.8254,-2.7948,3.9435,-1.0636,2.6133
1781765510756,-2.5571,-5.5009,-4.7579,3.2811,-1.4591,2.62
1781765510774,-2.3084,-5.1587,-5.0832,2.3357,-1.4223,2.6681
1781765510794,-1.4,-4.8625,-3.8538,1.5808,-1.2054,2.6408
1781765510814,-0.6057,-4.6505,-2.0345,1.2734,-0.977,2.6289
1781765510834,0.0726,-4.6054,-0.6379,1.354,-0.7818,2.7321
1781765510854,0.5274,-4.0167,-0.0709,1.5578,-0.6668,2.8584
1781765510874,1.0535,-3.146,-0.1992,1.727,-0.6284,2.9153
1781765510894,1.6211,-2.6176,-0.4654,1.8365,-0.615,2.9113
1781765510914,2.0812,-2.3328,-0.5422,1.9665,-0.6195,2.9174
1781765510934,2.5824,-2.0645,-0.5878,2.1783,-0.6331,2.9238
1781765510954,3.4839,-1.6253,-0.9403,2.4426,-0.6689,2.7882
1781765510974,4.3002,-0.7391,-1.6942,2.699,-0.7146,2.5002
1781765510994,4.5931,-0.369,-2.7305,2.7977,-0.7195,2.2587
1781765511014,4.6155,0.1368,-3.9236,2.6504,-0.6566,1.9987
1781765511034,4.6558,0.45,-4.7418,2.3946,-0.4813,1.7303
1781765511054,4.774,0.8954,-5.2168,2.1614,-0.2351,1.4405
1781765511074,4.6805,1.3445,-5.8828,1.7865,0.0285,1.1449
1781765511094,4.4688,1.6424,-6.4649,1.2894,0.3473,0.9239
1781765511114,4.2041,1.8043,-6.7997,0.7616,0.549,0.7434
1781765511134,4.249,1.9546,-6.65,0.3643,0.4798,0.5618
1781765511155,4.4254,1.9558,-6.2812,0.1188,0.1609,0.367
1781765511174,4.6029,1.7157,-5.764,-0.0003,-0.2845,0.2335
1781765511194,4.8739,1.2808,-5.3091,-0.0547,-0.7305,0.1874
1781765511214,5.1404,1.0589,-4.7076,-0.1047,-1.1026,0.2065
1781765511233,5.5625,0.9358,-4.2233,-0.2169,-1.3084,0.1662
1781765511254,6.1059,0.7906,-3.7121,-0.4156,-1.3687,0.0206
1781765511274,6.4516,0.4892,-3.2383,-0.6734,-1.3154,-0.2086
1781765511294,6.845,-0.1694,-2.6145,-0.8988,-1.2852,-0.4638
1781765511314,7.2574,-1.4971,-2.1465,-1.0753,-1.3094,-0.6752
1781765511334,7.1957,-2.4343,-1.3374,-1.0717,-1.356,-0.6075
1781765511354,6.8316,-1.6766,-0.5329,-0.9228,-1.4323,-0.4089
1781765511374,6.5758,0.597,-0.1072,-0.9228,-1.4323,-0.4089
1781765511393,6.6091,2.4148,0.046,-0.9908,-1.2807,-1.0854
1781765511414,6.2179,2.7845,0.3635,-1.2221,-0.9568,-1.8062
1781765511434,5.4045,1.8558,0.9564,-1.366,-0.6581,-2.3752
1781765511454,4.5886,0.0463,1.216,-1.4399,-0.4709,-2.7032
1781765511474,3.6643,-1.6013,1.565,-1.4399,-0.4709,-2.7032
1781765511494,2.8982,-2.7023,2.0101,-1.2768,-0.6134,-2.4212
1781765511514,2.091,-2.4047,2.4995,-1.1043,-0.9269,-2.1024
1781765511534,2.0332,-1.5614,2.8117,-1.04,-1.1706,-2.0335
1781765511554,2.1414,-1.2317,3.1483,-1.0732,-1.2332,-2.2022
1781765511574,2.0163,-1.2661,3.6031,-1.114,-1.0598,-2.4064
1781765511594,1.5947,-2.074,3.983,-1.1783,-0.6914,-2.5007
1781765511614,1.0004,-2.8993,4.3499,-1.1896,-0.2541,-2.4633
1781765511634,0.2229,-3.3117,4.5639,-1.1404,0.1386,-2.3796
1781765511654,-0.2927,-3.5024,4.5013,-1.0665,0.4005,-2.3198
1781765511674,-0.8073,-3.5577,4.3545,-1.0665,0.4005,-2.3198
1781765511694,-1.2387,-3.6749,4.1238,-0.9698,0.695,-2.2741
1781765511714,-1.9739,-3.8395,3.9902,-0.9278,0.8045,-2.2404
1781765511734,-2.6193,-4.2584,4.078,-0.7758,0.8731,-2.1296
1781765511754,-3.1883,-4.5071,4.1734,-0.5319,0.8462,-1.9935
1781765511774,-3.4328,-5.1637,3.972,-0.2391,0.7582,-1.9262
1781765511794,-3.8888,-5.8247,3.7307,0.0691,0.7197,-1.8622
1781765511814,-4.6909,-6.4117,3.2135,0.2946,0.7654,-1.7841
1781765511834,-5.378,-7.3806,2.4461,0.4003,0.93,-1.7247
1781765511854,-5.8605,-8.875,1.4384,0.3912,1.2073,-1.505
1781765511875,-7.2771,-9.8808,0.1608,0.3912,1.2073,-1.505
1781765511894,-8.0194,-10.2643,-0.7568,-0.1031,1.4703,-0.0416
1781765511914,-7.6491,-9.7493,-1.0419,-0.3712,1.3936,0.7374
1781765511933,-7.3836,-8.9109,-0.999,-0.3712,1.3936,0.7374
1781765511954,-6.21,-8.6381,-0.3556,-0.4818,1.1604,1.516
1781765511975,-6.21,-8.6381,-0.3556,-0.1037,0.8679,2.3322
1781765511994,-2.306,-7.4737,-0.9046,0.6295,0.3327,3.0268
1781765512014,-1.0401,-6.0794,-1.8794,1.2358,-0.3656,3.3167
1781765512036,-0.3159,-5.1754,-2.5109,1.2753,-1.3426,3.2506
1781765512057,0.1266,-4.4262,-2.4675,0.827,-1.2961,3.1442
1781765512075,0.1266,-4.4262,-2.4675,0.827,-1.2961,3.1442
1781765512094,1.2552,-3.9799,-0.429,0.093,-0.5001,2.8016
1781765512114,1.2301,-3.8506,0.6919,0.0391,-0.0766,2.7629
1781765512134,1.1643,-3.6308,1.4456,0.2661,0.1893,2.8854
1781765512154,1.235,-2.9988,1.7827,0.6724,0.2762,3.0772
1781765512174,1.235,-2.9988,1.7827,0.6724,0.2762,3.0772
1781765512194,2.3893,-1.5221,0.6667,1.2729,0.1215,3.2532
1781765512214,3.1496,-0.8896,0.0683,1.396,0.007,3.2328
1781765512234,4.0373,-0.4177,-0.3432,1.4369,-0.0858,3.1379
1781765512254,5.0049,0.0556,-0.6731,1.4462,-0.1224,2.9466
1781765512273,5.7685,0.689,-0.9158,1.4534,-0.1146,2.6876
1781765512294,6.221,1.1577,-1.1659,1.4021,-0.0474,2.3846
1781765512313,6.5706,1.5256,-1.4793,1.4021,-0.0474,2.3846
1781765512334,6.6387,1.8475,-1.7075,1.0894,0.287,1.7116
1781765512354,6.7896,2.1778,-1.8908,0.9363,0.4002,1.3699
1781765512375,6.7896,2.1778,-1.8908,0.9363,0.4002,1.3699
1781765512394,7.4388,2.1925,-2.4344,0.8738,0.4776,0.9577
1781765512414,7.4388,2.1925,-2.4344,0.8678,0.6267,0.5752
1781765512434,7.3881,2.1167,-3.0452,0.7532,0.8401,0.2941
1781765512454,7.1805,1.9955,-3.7438,0.506,1.0425,0.0691
1781765512474,6.7288,1.8526,-4.2122,0.2162,1.1742,-0.0066
1781765512494,6.7865,1.508,-4.2619,-0.027,1.1343,-0.0047
1781765512513,6.7865,1.508,-4.2619,-0.1447,0.8839,-0.0173
1781765512534,7.495,1.3052,-3.8559,-0.1202,0.5312,-0.1616
1781765512554,8.2889,1.1537,-3.7132,-0.1259,0.2753,-0.4315
1781765512575,8.7964,0.9889,-3.9916,-0.344,0.0139,-0.8354
1781765512594,9.0089,0.1372,-3.9459,-0.6593,-0.158,-1.1377
1781765512614,8.6965,-1.0367,-3.4268,-0.8801,-0.3657,-1.1471
1781765512634,8.3674,-1.0093,-2.4239,-0.8778,-0.6659,-1.0804
1781765512654,8.0368,0.4346,-1.461,-0.7771,-1.0182,-1.2737
1781765512674,7.5259,1.7426,-0.8514,-0.7103,-1.234,-1.8333
1781765512694,6.5096,1.9678,-0.3145,-0.7099,-1.2819,-2.5061
1781765512714,5.3426,0.8939,0.0947,-0.7047,-1.2812,-3.0396
1781765512734,4.3278,-1.0504,0.2023,-0.6874,-1.276,-3.3026
1781765512754,3.4327,-3.2832,0.2678,-0.649,-1.2895,-3.1614
1781765512775,2.5533,-4.3258,0.6694,-0.5802,-1.4399,-2.6365
1781765512794,1.7304,-3.6153,0.8695,-0.6268,-1.6716,-2.1202
1781765512814,2.0455,-2.6371,1.1394,-0.832,-1.7987,-1.9872
1781765512834,2.4249,-1.9812,1.7207,-1.0418,-1.7341,-2.2067
1781765512854,2.4578,-2.0001,2.4707,-1.1683,-1.4861,-2.5218
1781765512875,1.9762,-2.7856,3.1964,-1.2484,-1.0511,-2.7139
1781765512893,1.1524,-3.5957,3.6738,-1.2966,-0.5801,-2.8321
1781765512914,0.2882,-4.2922,4.0882,-1.2491,-0.1004,-2.8951
1781765512934,-0.4924,-4.8384,4.1137,-1.1482,0.2637,-2.9116
1781765512954,-1.2891,-5.1561,3.8433,-1.0765,0.4991,-2.8767
1781765512975,-1.9947,-5.3929,3.3977,-1.0819,0.6882,-2.8136
1781765512994,-2.6823,-5.4094,3.1818,-1.075,0.8119,-2.7341
1781765513013,-3.3664,-5.6029,3.056,-0.9793,0.852,-2.621
1781765513034,-3.9312,-5.9134,2.9842,-0.783,0.7174,-2.4988
1781765513054,-4.0097,-6.5777,2.9108,-0.5055,0.5052,-2.3772
1781765513076,-4.3677,-7.1426,2.7757,-0.2247,0.2696,-2.211
1781765513094,-4.7815,-7.6771,2.7896,0.0914,0.1307,-1.9879
1781765513114,-5.2578,-8.1584,2.6803,0.3195,0.1159,-1.7531
1781765513133,-5.5994,-8.8856,2.2397,0.4216,0.2726,-1.5504
1781765513154,-6.3561,-9.703,1.7066,0.4557,0.5222,-1.1155
1781765513174,-7.1563,-10.192,1.089,0.4675,0.687,-0.4039
1781765513194,-7.4331,-10.1735,0.2845,0.3727,0.6825,0.4041
1781765513214,-7.7856,-9.4665,-0.1135,0.2597,0.6335,1.2943
1781765513234,-7.3252,-8.5078,0.062,0.3782,0.6011,2.1165
1781765513254,-5.9598,-7.7947,0.1662,0.6954,0.4025,2.7467
1781765513274,-4.2885,-6.9406,-0.4814,0.9328,0.0076,3.0225
1781765513294,-2.7831,-6.2256,-1.0961,0.9818,-0.4315,3.0344
1781765513314,-2.0865,-6.0189,-1.431,0.9328,-0.7506,3.0816
1781765513334,-1.0454,-6.3894,-0.9053,1.2281,-0.9524,3.2551
1781765513354,0.1585,-6.1953,-1.1097,1.4859,-1.053,3.3591
1781765513376,1.0435,-5.6217,-1.9469,1.3102,-0.8847,3.3166
1781765513394,1.3123,-4.8457,-2.3268,0.8185,-0.4798,3.346
1781765513414,1.4139,-3.9553,-1.9469,0.28,0.042,3.4863
1781765513434,1.7426,-3.0618,-1.0462,-0.1065,0.5343,3.6061
1781765513454,2.4944,-2.2784,-0.2686,-0.292,0.8656,3.5957
1781765513475,3.3667,-1.5651,0.3456,-0.2376,0.9142,3.4585
1781765513494,4.4585,-0.6215,0.7222,0.0463,0.6855,3.1641
1781765513514,5.2816,0.1302,0.7516,0.4378,0.3307,2.8061
1781765513534,6.0288,0.6325,0.4384,0.7497,0.0176,2.4656
1781765513554,6.3449,1.1837,-0.0018,0.8734,-0.1324,2.1288
1781765513576,6.4886,1.6889,-0.2942,0.8012,-0.1421,1.7552
1781765513594,6.4245,1.9052,-0.4254,0.5959,0.0231,1.3714
1781765513614,5.98,1.864,-0.2809,0.4338,0.3002,1.1119
1781765513634,5.3541,1.8383,0.1231,0.4318,0.5246,1.0036
1781765513654,5.062,1.8903,0.2418,0.5687,0.6988,0.9425
1781765513675,5.0891,1.9195,-0.0317,0.7236,0.8455,0.8457
1781765513694,5.1661,2.0581,-0.6876,0.8037,0.9568,0.7102
1781765513714,5.1197,2.0627,-1.4611,0.8021,0.989,0.6152
1781765513734,5.0568,1.886,-2.2155,0.7589,0.8698,0.6014
1781765513753,5.0857,1.6145,-2.6485,0.7839,0.5493,0.719
1781765513774,5.8749,1.1233,-2.8807,0.9632,0.1119,0.8279
1781765513793,6.9782,1.2606,-3.1729,1.2098,-0.3151,0.8682
1781765513814,7.9351,1.9409,-4.0213,1.1319,-0.6042,0.6308
1781765513834,8.7514,2.1548,-4.8024,0.6605,-0.7669,0.1564
1781765513853,9.4229,1.712,-4.9533,0.0991,-0.7649,-0.3735
1781765513874,10.0074,0.6178,-4.6353,-0.3084,-0.6827,-0.8326
1781765513894,9.761,0.2965,-3.9786,-0.6137,-0.5641,-1.1068
1781765513914,8.7867,1.1299,-3.3079,-0.909,-0.3696,-1.4421
1781765513934,7.9096,1.6986,-2.5913,-1.2206,-0.2091,-1.934
1781765513954,6.5984,1.5202,-1.7062,-1.3734,-0.0798,-2.4531
1781765513976,5.4116,0.7171,-0.7345,-1.3418,-0.1787,-2.9332
1781765513994,4.0626,-0.7911,-0.0355,-1.1911,-0.4191,-3.2061
1781765514014,3.1946,-2.4005,0.4582,-0.9174,-0.8626,-3.2841
1781765514034,2.6808,-3.4672,0.8338,-0.5185,-1.4159,-3.1742
1781765514054,1.9771,-3.4386,0.9686,-0.212,-1.9511,-2.9644
1781765514075,1.2429,-2.6689,0.9409,-0.212,-1.9511,-2.9644
1781765514094,0.7927,-2.0578,0.9936,-0.2768,-2.2998,-2.648
1781765514114,0.4947,-1.9905,1.4141,-0.5261,-2.0467,-2.5023
1781765514133,0.1278,-2.0655,2.0411,-0.7373,-1.6043,-2.3566
1781765514154,0.1506,-2.2031,2.5278,-0.8621,-1.1929,-2.3447
1781765514174,0.1711,-2.4419,2.7916,-0.9452,-0.8687,-2.4436
1781765514194,-0.1219,-2.855,2.879,-1.0523,-0.5769,-2.549
1781765514214,-0.7397,-3.4453,2.9458,-1.1993,-0.2647,-2.5475
1781765514234,-1.5988,-3.8818,3.1108,-1.3413,0.0467,-2.4219
1781765514254,-2.2758,-4.389,3.356,-1.4266,0.3813,-2.1977
1781765514275,-3.0346,-4.5298,3.6551,-1.4266,0.3813,-2.1977
1781765514293,-3.1839,-4.7884,3.8156,-1.4117,0.6776,-1.9539
1781765514314,-2.9761,-5.459,3.685,-1.0056,1.0419,-1.7062
1781765514334,-3.0621,-6.168,3.2543,-0.773,1.0989,-1.5763
1781765514355,-3.3651,-6.5488,2.8697,-0.5597,1.0897,-1.4735
1781765514375,-3.5896,-7.2559,2.4652,-0.5597,1.0897,-1.4735
1781765514394,-3.7435,-8.3655,2.0712,-0.4146,1.0609,-1.4412
1781765514414,-4.6116,-9.1238,1.7903,-0.3119,1.0904,-1.3265
1781765514434,-4.9245,-10.052,1.3313,-0.195,1.2045,-0.9311
1781765514454,-5.7075,-10.1525,0.2907,-0.0765,1.3215,-0.347
1781765514474,-6.7152,-9.2018,-0.4814,-0.1595,1.2592,0.4593
1781765514493,-6.5658,-7.9603,-0.2644,-0.3165,0.964,1.4361
1781765514513,-5.1253,-7.263,0.193,-0.1689,0.5439,2.3578
1781765514533,-3.6788,-6.4356,-0.2467,0.3613,0.0549,3.0855
1781765514554,-2.5042,-5.5818,-0.9278,1.0242,-0.538,3.5253
1781765514574,-1.6852,-5.3111,-1.3397,1.4275,-1.0428,3.6396
1781765514594,-0.7198,-5.0774,-1.3683,1.454,-1.1534,3.6407
1781765514614,0.3462,-4.135,-1.2594,1.2923,-0.9687,3.5458
1781765514634,0.6311,-3.4413,-0.9645,1.0179,-0.6764,3.2391
1781765514654,0.6265,-3.0301,-0.5509,0.6799,-0.3547,2.9335
1781765514674,0.6281,-2.4113,0.002,0.4071,-0.1243,2.7473
1781765514694,1.0229,-1.7741,0.3603,0.3457,-0.0446,2.6432
1781765514714,1.4635,-0.9227,0.5827,0.464,-0.1141,2.5528
1781765514734,1.9223,-0.4626,0.3265,0.6423,-0.1426,2.4372
1781765514754,2.2948,-0.1273,0.1716,0.6848,-0.1107,2.326
1781765514776,2.2948,-0.1273,0.1716,0.6452,-0.0388,2.2444
1781765514794,3.5853,-0.0364,0.1282,0.6091,0.0599,2.1972
1781765514814,4.3678,0.256,-0.2334,0.6834,0.2235,2.1843
1781765514834,4.8364,0.7233,-0.8314,0.6937,0.4902,2.1415
1781765514854,5.2306,1.2674,-1.0714,0.4959,0.8388,2.0074
1781765514874,5.3845,1.5908,-0.92,0.2318,1.1729,1.8063
1781765514893,5.3845,1.5908,-0.92,0.0907,1.4237,1.6402
1781765514914,5.882,1.9201,-0.8395,0.1149,1.5838,1.4874
1781765514934,5.882,1.9201,-0.8395,0.2238,1.6052,1.2355
1781765514954,6.1744,1.9528,-1.1006,0.3964,1.5674,0.929
1781765514974,6.2788,1.8621,-1.6268,0.5136,1.5441,0.681
1781765514994,5.931,1.8481,-2.4886,0.4443,1.4758,0.5295
1781765515014,5.5016,1.827,-3.0733,0.2516,1.319,0.524
1781765515034,5.8904,1.8434,-3.1705,0.0651,1.0515,0.5337
1781765515054,7.0018,1.8585,-2.8746,-0.0939,0.7967,0.4806
1781765515074,8.367,1.8641,-2.4821,-0.2292,0.5469,0.2696
1781765515094,9.5242,1.9657,-1.913,-0.2583,0.3451,-0.1236
1781765515114,10.1323,1.9267,-1.586,-0.2694,0.1563,-0.6392
1781765515134,9.9905,1.4587,-1.6315,-0.3868,-0.0792,-1.1611
1781765515154,9.0648,0.8437,-1.3401,-0.4526,-0.2922,-1.4273
1781765515174,7.9529,0.9949,-0.737,-0.4528,-0.5612,-1.6222
1781765515194,7.091,1.4137,-0.1388,-0.4131,-0.8461,-1.9417
1781765515214,5.8944,1.524,0.6401,-0.3126,-0.9912,-2.3161
1781765515235,5.0242,0.9238,1.1298,-0.2349,-1.0819,-2.7068
1781765515254,4.2496,-0.3697,1.3057,-0.2171,-1.0175,-2.9967
1781765515274,3.5325,-1.8268,1.2229,-0.2037,-0.8891,-3.0741
1781765515294,2.5219,-2.8194,1.2854,-0.1379,-0.7903,-2.8915
1781765515314,1.3849,-3.0833,1.4351,-0.0434,-0.8255,-2.4869
1781765515334,0.766,-2.4517,1.3533,-0.0393,-0.9813,-2.2055
1781765515354,0.5173,-1.8249,1.3955,-0.1333,-1.1295,-2.1385
1781765515374,0.4402,-1.5034,1.7845,-0.2001,-1.1959,-2.2372
1781765515394,0.3281,-1.7377,2.075,-0.2161,-1.1569,-2.3809
1781765515415,-0.0034,-2.3096,2.3411,-0.2304,-1.0569,-2.4445
1781765515434,-0.4788,-3.0482,2.571,-0.2244,-0.8377,-2.4141
1781765515454,-0.9584,-3.5289,2.717,-0.2374,-0.6044,-2.3419
1781765515474,-1.648,-3.6032,2.6814,-0.2777,-0.3525,-2.2762
1781765515494,-2.2241,-3.6382,2.6338,-0.3582,-0.1193,-2.1868
1781765515513,-2.8335,-3.555,2.6639,-0.3857,0.1378,-2.085
1781765515534,-3.1629,-3.7197,2.7259,-0.2979,0.3643,-1.964
1781765515554,-3.312,-3.9608,2.525,-0.2074,0.477,-1.9514
1781765515574,-3.4091,-4.6252,2.1526,-0.1558,0.5321,-1.9872
1781765515594,-3.6283,-5.381,1.8769,-0.0633,0.5528,-1.9636
1781765515614,-4.2791,-5.836,1.6272,0.0142,0.5444,-1.847
1781765515634,-4.496,-6.5907,1.2734,0.0205,0.6138,-1.7677
1781765515654,-4.9601,-7.5721,0.851,-0.0139,0.8965,-1.6325
1781765515674,-5.6109,-8.5923,0.2607,-0.0349,1.3766,-1.3826
1781765515694,-5.6863,-9.7481,-0.6672,-0.0898,1.9004,-0.9863
1781765515713,-5.9754,-10.0104,-2.3868,-0.6439,2.2742,-0.4371
1781765515734,-7.2673,-9.2809,-3.9722,-1.6554,2.5247,0.4066
1781765515754,-8.3635,-8.872,-4.7688,-2.7278,2.4688,1.608
1781765515774,-7.5839,-8.6566,-3.8306,-3.1102,1.6914,2.6821
1781765515794,-5.0387,-7.9363,-1.6495,-2.4587,0.235,3.2838
1781765515814,-2.0355,-6.7656,0.1299,-1.0987,-1.5745,3.3303
1781765515834,-0.4362,-5.3573,1.3177,0.4792,-3.0217,3.1439
1781765515854,0.3651,-4.9631,1.269,1.5776,-3.6914,2.9742
1781765515874,1.0694,-4.7615,0.6959,1.9976,-3.5643,2.8376
1781765515895,1.5117,-4.6115,-0.1431,1.7901,-2.7632,2.7414
1781765515914,2.1825,-4.2425,-0.1373,1.4182,-1.6584,2.8021
1781765515934,2.1221,-3.1417,-0.1184,0.9985,-0.6745,2.9413
1781765515954,2.1982,-1.8655,-0.2856,0.5496,0.0164,2.9335
1781765515974,2.334,-0.6006,-0.1395,0.2303,0.3918,2.784
1781765515994,2.4773,0.1909,0.0985,0.08,0.4655,2.5451
1781765516014,2.6345,0.7821,0.3644,0.0875,0.3135,2.2672
1781765516034,2.7568,0.8734,0.5853,0.1872,0.0467,2.0475
1781765516054,2.9977,0.7493,0.7615,0.3573,-0.2142,1.9049
1781765516074,3.2808,0.557,0.7848,0.5214,-0.3523,1.8763
1781765516094,3.5285,0.6034,0.6315,0.6187,-0.3727,1.9011
1781765516114,4.02,0.9407,0.5314,0.6955,-0.2707,1.9104
1781765516134,4.3593,1.3214,0.3803,0.7167,-0.0305,1.909
1781765516154,4.7916,1.9808,0.2073,0.7098,0.2353,1.7893
1781765516174,5.3461,2.4036,-0.0411,0.6864,0.5329,1.582
1781765516194,5.8579,2.8593,-0.4562,0.6447,0.7236,1.2392
1781765516214,6.2373,2.5381,-0.9155,0.6263,0.846,0.9453
1781765516233,6.1978,1.843,-1.2413,0.6915,0.792,0.8227
1781765516254,6.2316,1.4545,-1.5081,0.8847,0.6155,0.8468
1781765516274,6.4682,1.3435,-2.1083,1.029,0.2712,0.8897
1781765516295,7.3194,1.3653,-2.8064,1.029,0.2712,0.8897
1781765516314,7.9694,1.5002,-3.2219,0.9427,-0.3916,0.6805
1781765516334,8.4826,2.1332,-3.4897,0.6726,-0.4826,0.365
1781765516354,8.8257,2.3162,-3.5779,0.3334,-0.5493,-0.1137
1781765516374,8.8641,1.7436,-3.329,0.1197,-0.6889,-0.5656
1781765516395,8.7608,0.5148,-2.9261,0.1197,-0.6889,-0.5656
1781765516414,8.1315,-0.0628,-2.6303,0.1162,-1.0928,-0.8781
1781765516434,7.3374,0.858,-2.3283,0.0986,-1.3292,-1.0593
1781765516454,6.5937,1.5051,-2.1488,-0.0316,-1.4475,-1.4086
1781765516475,5.5855,1.8269,-1.6631,-0.1856,-1.4944,-1.7935
1781765516494,4.6753,1.2072,-1.3085,-0.1856,-1.4944,-1.7935
1781765516514,3.9905,-0.2218,-0.808,-0.563,-1.5814,-2.4274
1781765516534,3.2887,-1.8931,-0.2241,-0.5614,-1.6231,-2.436
1781765516555,2.4421,-2.7392,0.2995,-0.4545,-1.7533,-2.1773
1781765516574,1.8122,-2.3493,0.6719,-0.3698,-1.9489,-1.8176
1781765516594,1.6424,-1.3576,0.7713,-0.4735,-2.0796,-1.6296
1781765516614,1.8547,-0.4451,1.0632,-0.6895,-2.0174,-1.6924
1781765516634,2.2434,-0.2075,1.4791,-0.9455,-1.7959,-1.933
1781765516654,2.2998,-0.6951,1.9543,-1.2175,-1.3616,-2.1635
1781765516674,1.8129,-1.3628,2.5585,-1.4976,-0.8927,-2.3302
1781765516694,1.4285,-2.211,3.1,-1.4976,-0.8927,-2.3302
1781765516714,0.8407,-2.9436,3.6543,-1.7841,0.0173,-2.6383
1781765516734,0.1388,-3.4498,3.908,-1.8023,0.3371,-2.766
1781765516754,-0.6505,-4.0292,4.0149,-1.8104,0.6259,-2.8038
1781765516774,-1.3433,-4.8139,4.131,-1.8104,0.6259,-2.8038
1781765516794,-2.2349,-5.5491,4.3624,-1.767,0.9415,-2.725
1781765516814,-2.8361,-6.0812,4.4172,-1.3732,1.3306,-2.4157
1781765516834,-3.392,-6.6773,4.1432,-1.3732,1.3306,-2.4157
1781765516854,-4.1646,-6.803,3.9549,-1.1221,1.3795,-2.2296
1781765516873,-4.6126,-6.8449,3.7612,-0.8288,1.342,-1.9414
1781765516895,-4.8405,-7.263,3.4075,-0.5104,1.2878,-1.6442
1781765516913,-5.2204,-7.429,3.0121,-0.1942,1.2641,-1.3413
1781765516934,-5.4464,-7.2368,2.4474,0.1659,1.1866,-0.9711
1781765516954,-5.3296,-7.1777,1.7338,0.5536,0.9968,-0.5753
1781765516974,-5.537,-6.9095,0.8963,0.8373,0.7538,-0.2226
1781765516994,-5.537,-6.9095,0.8963,0.8982,0.6115,0.1482
1781765517014,-6.3227,-6.4352,0.0097,0.8353,0.5146,0.6756
1781765517034,-5.5128,-6.4797,0.129,0.9143,0.2977,1.3602
1781765517054,-3.9876,-6.1168,-0.139,1.3294,-0.0273,2.0313
1781765517074,-2.6355,-5.1319,-0.7434,1.8968,-0.5221,2.4836
1781765517094,-1.6724,-4.3385,-1.6737,2.359,-1.0522,2.593
1781765517113,-1.2782,-3.8054,-2.3703,2.4627,-1.4531,2.504
1781765517134,-1.0388,-3.7971,-2.4633,2.1403,-1.5224,2.4054
1781765517154,-0.6826,-3.6177,-2.0077,1.5317,-1.2494,2.4342
1781765517174,-0.3284,-2.9965,-1.1589,0.9487,-0.7849,2.5023
1781765517195,-0.3284,-2.9965,-1.1589,0.6112,-0.3169,2.5625
1781765517214,0.5483,-1.0207,-0.6628,0.4176,0.05,2.5022
1781765517234,0.9795,-0.4103,-0.7937,0.2748,0.3641,2.3156
1781765517255,1.1096,-0.1722,-0.8908,0.1235,0.6017,2.074
1781765517274,1.0842,-0.1818,-0.9823,0.0337,0.7465,1.9067
1781765517294,1.0842,-0.1818,-0.9823,-0.0644,0.7857,1.8652
1781765517314,1.2502,-0.2903,-0.9553,-0.1097,0.7495,1.9049
1781765517334,2.2106,-0.1014,-0.5561,-0.0604,0.5945,1.9549
1781765517354,2.7736,0.2046,-0.5047,0.0938,0.3996,1.9598
1781765517374,2.7736,0.2046,-0.5047,0.3142,0.2057,1.9176
1781765517394,3.2668,0.5967,-0.5656,0.5614,0.0774,1.8653
1781765517414,3.6272,1.0434,-0.9489,0.7589,-0.0537,1.7914
1781765517434,4.0939,1.2301,-1.4549,0.857,-0.2547,1.6614
1781765517454,4.557,1.5381,-1.8642,0.898,-0.4694,1.4648
1781765517474,4.7359,1.5458,-2.2048,0.8281,-0.6638,1.266
1781765517494,4.7669,1.4674,-2.327,0.7154,-0.7968,1.1396
1781765517514,4.8134,1.3604,-2.2578,0.5923,-0.8995,1.0947
1781765517534,4.8963,1.5182,-1.9044,0.554,-1.0011,1.0805
1781765517553,5.1375,1.8359,-1.5026,0.5868,-1.1542,0.9946
1781765517574,5.7043,1.9504,-1.2775,0.6491,-1.3141,0.7813
1781765517594,6.3011,1.5167,-1.32,0.6102,-1.4689,0.4645
1781765517614,6.8443,0.2769,-1.3875,0.4627,-1.5891,0.2062
1781765517634,6.9068,-0.8246,-1.026,0.385,-1.6626,0.204
1781765517654,6.6334,-0.959,-0.3794,0.4781,-1.7371,0.3673
1781765517674,6.4456,0.4527,-0.0091,0.6526,-1.8304,0.365
1781765517695,6.2903,2.3337,-0.1235,0.7234,-1.8554,0.0647
1781765517714,5.9854,3.6196,-0.4373,0.5897,-1.7304,-0.4752
1781765517734,5.3896,3.7255,-0.6282,0.2689,-1.4904,-1.0518
1781765517754,4.7601,2.7465,-0.4671,-0.1093,-1.2402,-1.5066
1781765517774,4.1011,0.8814,0.0242,-0.3957,-0.9925,-1.7117
1781765517795,3.0328,-0.6742,0.8626,-0.4064,-0.8377,-1.5385
1781765517813,1.891,-0.8755,1.5654,-0.1529,-0.9897,-1.1353
1781765517834,1.6169,-0.1185,1.7113,0.1318,-1.3979,-0.9033
1781765517854,1.7182,0.8283,1.6419,0.3365,-1.7691,-0.9429
1781765517874,1.6543,1.4528,1.5858,0.4181,-1.9775,-1.115
1781765517895,1.5309,1.404,1.4535,0.2985,-1.9539,-1.2805
1781765517914,1.2796,0.995,1.448,0.0702,-1.7724,-1.385
1781765517934,0.8677,0.3022,1.6741,-0.1791,-1.5162,-1.3827
1781765517953,0.5262,-0.058,2.0617,-0.3683,-1.3048,-1.3243
1781765517974,0.2998,-0.2114,2.327,-0.5488,-1.1165,-1.2989
1781765517994,0.1212,-0.1847,2.6224,-0.7523,-0.8878,-1.3029
1781765518014,-0.0755,-0.0972,2.9472,-0.9895,-0.6004,-1.3463
1781765518034,-0.2087,-0.4367,3.215,-1.2373,-0.2765,-1.4298
1781765518055,-0.2615,-1.1393,3.6085,-1.422,-0.0162,-1.5076
1781765518074,-0.2454,-1.8947,4.1434,-1.5158,0.2205,-1.6028
1781765518096,-0.4513,-2.7873,4.4464,-1.6155,0.4954,-1.6681
1781765518114,-1.1398,-3.2218,4.7794,-1.6763,0.7901,-1.685
1781765518134,-1.4395,-3.8797,5.0133,-1.637,1.0449,-1.7645
1781765518154,-1.6212,-4.8678,5.0711,-1.5177,1.3423,-1.9335
1781765518174,-1.95,-6.4237,4.7403,-1.315,1.6246,-1.9224
1781765518194,-2.813,-7.2399,4.0848,-1.0677,1.7073,-1.6778
1781765518214,-4.231,-7.3566,3.2779,-0.8294,1.3113,-1.1479
1781765518235,-5.3352,-6.9449,3.1732,-0.4038,0.5949,-0.378
1781765518253,-5.1389,-6.2425,3.7751,0.385,-0.1341,0.2538
1781765518274,-4.193,-5.4002,4.5143,1.5084,-0.5313,0.6197
1781765518294,-3.2109,-4.6754,3.9409,2.4975,-0.4987,0.765
1781765518314,-2.9865,-3.952,1.9343,2.8106,-0.2874,0.706
1781765518334,-3.0454,-3.7462,-0.2458,2.4309,0.1129,0.6175
1781765518354,-3.4731,-3.8295,-1.7682,1.6649,0.5205,0.6541
1781765518375,-3.7872,-4.0352,-2.2667,0.877,0.7562,0.8918
1781765518396,-3.8883,-4.3155,-2.0361,0.3066,0.7428,1.2478
1781765518414,-3.5225,-4.2859,-1.0887,0.1798,0.4708,1.6157
1781765518434,-2.8791,-4.0828,-0.0015,0.4735,-0.0093,1.9657
1781765518454,-2.0763,-3.5427,0.8235,1.0467,-0.5685,2.2683
1781765518475,-1.1081,-3.0869,1.0035,1.6297,-1.0473,2.4883
1781765518496,-0.1273,-2.5184,0.6726,1.9975,-1.2837,2.5827
1781765518514,0.5556,-1.9804,0.235,2.106,-1.2605,2.5832
1781765518534,0.9709,-1.5121,-0.0145,2.0402,-1.0658,2.5566
1781765518554,1.3404,-1.0848,-0.1294,1.9754,-0.7561,2.5446
1781765518574,1.6612,-0.5422,-0.1337,1.9875,-0.4492,2.5361
1781765518594,2.3057,-0.1966,-0.4649,2.0479,-0.2235,2.474
1781765518614,2.9536,0.2323,-1.0005,2.1418,-0.0618,2.3712
1781765518634,3.372,0.6659,-1.7559,2.1316,0.0051,2.2381
1781765518654,3.5772,1.0228,-2.5634,1.9496,0.0488,2.08
1781765518674,3.8878,1.1409,-2.9998,1.6823,0.1326,1.9518
1781765518694,4.033,1.1081,-2.9908,1.4172,0.326,1.9048
1781765518714,4.3852,0.9918,-2.7306,1.4172,0.326,1.9048
1781765518734,5.3039,0.5962,-2.5277,1.1783,1.0311,1.8388
1781765518754,6.6473,0.1831,-2.2621,1.2368,1.4629,1.7495
1781765518774,7.7424,0.115,-2.8808,1.2338,1.7569,1.4987
1781765518794,7.9785,-0.1187,-3.4682,1.0811,1.9079,1.188
1781765518814,8.3721,-0.573,-3.5724,1.0464,1.9884,0.8574
1781765518834,8.2679,-0.6053,-3.7786,0.9424,1.9274,0.5128
1781765518854,8.0228,-0.0451,-3.9707,0.7545,1.7356,-0.0445
1781765518874,7.3068,0.203,-3.6312,0.6094,1.495,-0.5309
1781765518897,6.7386,-0.2779,-3.298,0.4123,1.2685,-0.9672
1781765518914,5.9245,-1.8039,-2.9175,-0.0139,1.3602,-1.1297
1781765518934,4.7779,-3.9226,-1.8794,-0.3975,1.3831,-0.8414
1781765518954,3.0477,-4.6398,0.1076,-0.307,0.953,-0.1651
1781765518974,2.4585,-2.6222,1.0092,0.1864,-0.173,0.2735
1781765518994,2.7926,0.0454,0.6181,0.6473,-1.3693,0.3156
1781765519014,3.1809,1.6379,-1.0601,0.5252,-2.1064,0.0754
1781765519034,3.1393,2.2128,-1.9724,-0.065,-2.183,-0.2613
1781765519054,2.933,1.3463,-1.194,-0.6982,-2.0196,-0.4834
1781765519074,2.1968,0.7487,0.5894,-0.952,-1.9908,-0.5874
1781765519094,2.2971,0.2489,1.5505,-0.9872,-2.3324,-0.719
1781765519113,2.4733,0.3596,2.1777,-0.9458,-2.6667,-0.8882
1781765519134,2.9617,1.1552,2.1861,-1.0406,-2.8381,-1.2535
1781765519154,3.2697,2.0457,1.7821,-1.3531,-2.8503,-1.8179
1781765519174,3.4317,1.8198,1.4812,-1.8971,-2.6754,-2.4623
1781765519194,2.9634,0.0077,2.2063,-2.5051,-2.0993,-2.911
1781765519214,1.2188,-1.8434,3.9549,-2.7811,-1.3696,-3.0266
1781765519234,-0.1577,-2.667,5.1531,-2.7811,-1.3696,-3.0266
1781765519254,-1.1018,-2.5256,5.5721,-2.632,-1.0391,-3.0132
1781765519274,-1.4755,-2.1088,5.2277,-2.2328,-1.0577,-3.054
1781765519294,-1.6805,-2.0141,4.5336,-1.8926,-1.2319,-3.2131
1781765519314,-2.3271,-2.5466,4.2141,-1.7706,-1.3417,-3.4004
1781765519334,-3.0747,-3.2087,4.3986,-1.801,-1.2663,-3.4371
1781765519354,-3.7666,-3.6418,4.6485,-1.8141,-1.0591,-3.3991
1781765519374,-4.1394,-4.2083,4.4773,-1.7302,-0.8245,-3.3203
1781765519394,-4.2789,-5.3778,4.0785,-1.6622,-0.5631,-3.2565
1781765519414,-4.2789,-5.3778,4.0785,-1.6687,-0.2491,-3.0532
1781765519434,-6.9053,-6.757,4.9211,-1.6589,0.2202,-2.4957
1781765519454,-7.3356,-6.8008,4.9838,-1.4372,0.6986,-1.8248
1781765519474,-6.9064,-6.9388,4.7116,-1.1119,0.9959,-1.1962
1781765519494,-6.2085,-7.2924,4.2064,-0.7223,1.0845,-0.6811
1781765519514,-6.0273,-7.4706,3.8392,-0.3519,1.0486,-0.2074
1781765519534,-6.1275,-7.3443,3.4638,0.0256,0.88,0.3842
1781765519554,-6.0075,-6.8695,3.0351,0.3511,0.5573,1.0789
1781765519574,-5.2025,-6.0205,3.018,0.6514,0.2466,1.7999
1781765519594,-3.5783,-5.2369,2.875,1.105,-0.0075,2.3739
1781765519613,-3.5783,-5.2369,2.875,1.6319,-0.3412,2.6519
1781765519634,-1.3658,-3.7978,1.7305,1.9496,-0.6761,2.6066
1781765519654,-0.7492,-3.9737,1.5437,2.0888,-0.8856,2.4575
1781765519674,0.5548,-5.2423,1.4451,2.2827,-0.9507,2.363
1781765519694,1.4154,-5.8906,0.3818,2.7134,-0.8271,2.4206
1781765519714,1.4154,-5.8906,0.3818,2.842,-0.5725,2.5825
1781765519734,1.5509,-4.4135,-2.1137,2.2605,-0.17,2.6197
1781765519754,1.563,-3.2281,-1.557,1.4134,0.1326,2.6568
1781765519773,1.563,-3.2281,-1.557,0.9311,0.2191,2.6173
1781765519794,1.796,-2.619,-0.5206,0.9738,0.0992,2.4444
1781765519814,1.779,-2.2011,-0.2891,1.2388,-0.2892,2.2593
1781765519834,1.4791,-1.9987,-0.4785,1.5738,-0.7763,2.2251
1781765519854,1.466,-1.8663,-1.1009,1.8796,-1.2274,2.2346
1781765519873,2.0318,-1.6119,-1.5297,2.1384,-1.4228,2.1927
1781765519894,2.9438,-1.7851,-1.9702,2.3748,-1.4021,2.0785
1781765519914,3.7469,-2.1295,-2.5717,2.5759,-1.2372,1.9894
1781765519934,3.6503,-2.2171,-2.9991,2.7602,-0.8094,1.9763
1781765519954,3.2886,-1.9213,-4.017,2.7056,-0.1602,2.0424
1781765519974,3.8674,-1.7483,-5.1589,2.3775,0.6084,2.1019
1781765519994,4.6456,-1.186,-5.5986,2.1182,0.9822,2.0618
1781765520014,5.8845,-0.7702,-5.7622,2.0149,0.9153,1.8913
1781765520034,6.5384,-0.7404,-6.0743,1.8899,0.5608,1.7122
1781765520054,6.5879,-0.4388,-6.3145,1.6739,0.0714,1.561
1781765520074,6.5354,0.1159,-6.4166,1.3871,-0.4438,1.3915
1781765520094,6.5482,0.7131,-6.0546,1.0752,-0.5943,1.1017
1781765520114,6.4503,0.9728,-6.1613,0.5802,-0.4767,0.7862
1781765520135,6.1913,0.6991,-5.9796,0.0536,-0.3756,0.5867
1781765520154,6.0714,0.7682,-5.3466,-0.3083,-0.442,0.4066
1781765520174,6.2386,1.0236,-4.8158,-0.5509,-0.6241,0.143
1781765520194,6.2299,1.1723,-4.3821,-0.779,-0.8117,-0.2139
1781765520214,6.5088,0.8827,-4.1928,-1.1098,-1.0562,-0.6544
1781765520234,6.4668,0.1116,-3.8747,-1.5794,-1.2329,-1.0513
1781765520254,6.5139,-1.0162,-3.3495,-2.1485,-1.4695,-1.3792
1781765520274,6.3869,-2.4607,-2.2494,-2.6669,-1.7328,-1.5655
1781765520294,5.614,-3.0417,-0.5512,-2.9304,-1.9944,-1.5982
1781765520314,4.5189,-2.3563,1.3149,-2.8758,-2.1636,-1.614
1781765520334,3.6483,-0.9952,2.6274,-2.566,-2.2453,-1.8232
1781765520353,3.4809,-0.4124,3.1836,-2.1717,-2.3842,-2.2547
1781765520374,3.2334,-0.7407,3.1482,-1.9877,-2.3698,-2.6934
1781765520394,2.4755,-1.991,2.9968,-2.1171,-2.0999,-2.9123
1781765520414,1.525,-3.7319,3.2533,-2.3892,-1.6666,-2.8334
1781765520434,0.5381,-4.8388,3.7941,-2.6694,-1.0795,-2.561
1781765520454,0.1314,-5.5359,4.5118,-2.6852,-0.7318,-2.2363
1781765520474,0.54,-5.7839,5.2985,-2.4684,-0.6349,-2.0401
1781765520494,0.0817,-4.8493,5.7251,-2.1728,-0.4308,-1.9653
1781765520514,-1.1205,-3.9303,5.9039,-1.9307,-0.1232,-1.9392
1781765520534,-2.284,-3.6926,5.8108,-1.6643,0.1065,-1.8598
1781765520555,-3.5457,-3.713,5.9183,-1.2246,0.1965,-1.6344
1781765520574,-4.6374,-3.6702,5.8179,-0.6879,0.1197,-1.2852
1781765520594,-5.5337,-3.281,5.3115,-0.2438,-0.0821,-0.9187
1781765520614,-5.6381,-3.077,4.86,0.057,-0.3145,-0.5873
1781765520634,-5.129,-3.1678,4.5499,0.2586,-0.5054,-0.3678
1781765520654,-4.8115,-3.0562,4.517,0.4248,-0.663,-0.2514
1781765520674,-4.4691,-3.0324,4.5171,0.5643,-0.8344,-0.2137
1781765520694,-4.262,-3.0888,4.5409,0.6645,-0.9116,-0.2383
1781765520715,-4.1396,-3.2922,4.5318,0.6681,-0.7735,-0.3048
1781765520734,-4.1013,-3.8001,4.3796,0.537,-0.4288,-0.2992
1781765520754,-3.9673,-4.3835,4.287,0.3285,0.0443,-0.2746
1781765520774,-3.8222,-4.9506,4.0661,-0.0055,0.576,-0.2344
1781765520794,-4.7017,-4.9022,3.9269,-0.4053,1.1003,-0.0196
1781765520815,-5.4942,-4.5533,4.4314,-0.5057,1.3081,0.3693
1781765520834,-5.5599,-4.5363,5.1771,-0.1515,1.162,0.8855
1781765520854,-4.8345,-4.2673,5.7749,0.6079,0.7533,1.3362
1781765520874,-3.4395,-3.9531,5.6852,1.4805,0.3267,1.5546
1781765520894,-1.935,-3.9043,4.687,2.1482,0.0219,1.5597
1781765520914,-1.085,-3.995,3.4368,2.4861,-0.0842,1.5565
1781765520934,-0.7622,-3.7657,2.185,2.4421,-0.0049,1.6229
1781765520954,-0.1324,-3.509,1.1169,2.0931,0.1151,1.6509
1781765520974,0.6956,-3.1636,0.7091,1.7186,0.1816,1.6145
1781765520994,1.121,-2.4912,1.1054,1.6824,0.2362,1.58
1781765521014,1.6115,-1.9782,1.3629,1.9157,0.2827,1.5753
1781765521034,1.722,-1.3284,0.922,2.1402,0.4308,1.6108
1781765521054,1.9086,-0.7217,-0.1162,2.1248,0.7398,1.5966
1781765521074,2.412,-0.6842,-1.3041,1.8773,1.0185,1.572
1781765521093,3.0509,-0.8531,-1.7028,1.8523,1.2129,1.587
1781765521114,3.8612,-1.1598,-1.9512,2.12,1.3029,1.597
1781765521133,4.7342,-0.9621,-2.9321,2.387,1.3835,1.4694
1781765521153,5.2596,-0.7304,-4.3615,2.4082,1.4699,1.243
1781765521174,5.2259,-0.3537,-5.8956,2.1331,1.4953,1.0031
1781765521193,4.9469,-0.1745,-7.2063,1.6051,1.384,0.7945
1781765521214,4.6575,-0.0601,-7.48,1.6051,1.384,0.7945
1781765521234,4.9738,-0.3699,-6.8261,0.7479,1.082,0.4366
1781765521254,5.5029,-0.656,-6.015,0.7435,1.0058,0.1857
1781765521274,5.8565,-1.1693,-5.9954,0.7938,0.9933,-0.0201
1781765521293,6.0037,-1.4006,-6.7857,0.6786,1.0191,-0.1873
1781765521314,6.1363,-1.5086,-7.7445,0.3426,1.0734,-0.2669
1781765521333,5.915,-1.4006,-8.4872,-0.2594,1.0833,-0.2568
1781765521354,5.8577,-0.5929,-8.3983,-0.9065,0.9667,-0.4304
1781765521374,5.718,0.5344,-7.3777,-1.3578,0.728,-0.8913
1781765521394,5.7433,0.4826,-6.2697,-1.6661,0.493,-1.4876
1781765521416,5.2487,-0.5429,-5.4991,-1.6661,0.493,-1.4876
1781765521434,4.9272,-1.6923,-4.636,-2.2751,0.2688,-1.9568
1781765521454,4.4925,-2.2441,-3.6005,-2.5382,0.1387,-2.0399
1781765521474,4.4951,-2.6855,-2.657,-2.7437,-0.1011,-2.1676
1781765521494,4.2786,-3.1299,-1.6954,-2.9376,-0.3941,-2.2912
1781765521515,3.8228,-3.351,-0.3295,-2.9376,-0.3941,-2.2912
1781765521534,2.7908,-2.9101,1.3521,-2.6724,-0.5202,-1.9585
1781765521554,1.2941,-1.5369,2.5642,-2.2901,-0.1703,-1.695
1781765521574,0.6767,-0.459,3.1939,-1.7735,0.1357,-1.6576
1781765521594,0.7321,-0.2909,3.4491,-1.1159,0.1519,-1.8071
1781765521615,0.889,-0.7975,2.8956,-1.1159,0.1519,-1.8071
1781765521634,0.7923,-1.7975,1.747,-0.3617,-0.2296,-2.2144
1781765521654,0.4214,-2.7723,0.9016,-0.4803,-0.4696,-2.1172
1781765521674,-0.5174,-2.8332,0.7978,-0.4803,-0.4696,-2.1172
1781765521694,-1.2051,-2.5534,1.1094,-0.8156,-0.6308,-1.7637
1781765521716,-1.3129,-1.9194,2.0117,-1.2315,-0.7046,-1.4149
1781765521734,-1.3014,-1.3052,3.0496,-1.5031,-0.6596,-1.2458
1781765521754,-1.5043,-0.816,3.8278,-1.5607,-0.5123,-1.2706
1781765521774,-1.7848,-0.6581,4.224,-1.4659,-0.3043,-1.4566
1781765521794,-2.185,-1.0815,4.3294,-1.2973,-0.0705,-1.7257
1781765521815,-2.185,-1.0815,4.3294,-1.1316,0.2246,-1.9411
1781765521834,-3.7212,-2.6523,4.0179,-1.0032,0.5797,-2.0053
1781765521854,-4.7247,-3.1793,3.2913,-0.8957,0.9456,-1.8773
1781765521873,-5.2184,-3.839,2.5656,-0.9022,1.163,-1.6479
1781765521894,-5.3424,-4.4434,2.247,-1.0312,1.1998,-1.3555
1781765521915,-5.3424,-4.4434,2.247,-1.079,1.0278,-1.0303
1781765521934,-5.1049,-5.0109,2.9275,-0.8857,0.6937,-0.6761
1781765521954,-4.7609,-5.2232,3.3546,-0.5592,0.3493,-0.3303
1781765521974,-4.1716,-5.7696,3.5329,-0.1326,0.047,-0.0361
1781765521995,-3.4953,-6.7414,3.3491,0.3402,-0.1418,0.2104
1781765522014,-3.4953,-6.7414,3.3491,0.8613,-0.2314,0.4593
1781765522034,-3.1357,-7.5192,1.6398,1.3464,-0.1747,0.7719
1781765522054,-3.6616,-7.4007,0.0054,1.5468,0.0267,1.0994
1781765522074,-4.1794,-6.9213,-1.009,1.1891,0.394,1.4658
1781765522094,-3.7779,-6.7934,-1.3721,0.6985,0.9199,2.0138
1781765522115,-2.5239,-6.7589,-1.6137,0.4245,1.1881,2.7106
1781765522134,-0.6155,-5.3462,-1.5109,0.3829,0.9747,3.3905
1781765522154,1.2299,-2.9254,-1.1489,0.5874,0.3678,3.7018
1781765522173,1.2299,-2.9254,-1.1489,0.9764,-0.2759,3.4762
1781765522195,2.8595,-0.7756,-1.1023,1.2843,-0.7142,3.034
1781765522215,2.8595,-0.7756,-1.1023,1.2986,-0.7366,2.6157
1781765522233,2.8691,-0.2093,-1.4502,0.9661,-0.4603,2.2186
1781765522254,2.5929,0.0777,-1.5376,0.4565,0.0199,1.8868
1781765522275,2.5597,0.1849,-0.9991,0.0733,0.5027,1.6728
1781765522294,2.6202,0.283,-0.3496,-0.0768,0.9329,1.5625
1781765522315,2.665,0.7845,0.0265,-0.1084,1.2737,1.4461
1781765522334,2.679,1.5356,0.1114,-0.113,1.4938,1.2275
1781765522354,2.6828,1.9406,-0.0607,-0.1695,1.619,0.9261
1781765522374,2.6541,1.9632,-0.2139,-0.2617,1.6932,0.6439
1781765522394,2.438,1.765,-0.3556,-0.4041,1.7804,0.454
1781765522416,2.2928,1.485,-0.3421,-0.5543,1.8306,0.3776
1781765522434,2.2084,1.1471,-0.2182,-0.642,1.8379,0.4337
1781765522454,2.007,0.8098,0.0155,-0.621,1.7672,0.6149
1781765522474,2.242,0.8512,0.2144,-0.4303,1.6083,0.8061
1781765522495,2.6727,1.131,0.1964,-0.1891,1.3612,0.9396
1781765522515,3.129,1.6762,-0.0524,0.0151,1.0848,0.965
1781765522534,3.7138,1.932,-0.3156,0.1581,0.8515,0.9074
1781765522554,4.2486,1.8257,-0.4993,0.2922,0.7004,0.837
1781765522574,4.5137,1.709,-0.5877,0.4832,0.5434,0.7967
1781765522594,4.7457,1.4847,-0.7754,0.7418,0.3906,0.8078
1781765522616,4.996,1.2845,-1.1279,1.0094,0.1659,0.8319
1781765522634,5.5781,0.8917,-1.7465,1.2338,-0.1811,0.7975
1781765522654,6.4835,0.0607,-2.4278,1.4539,-0.568,0.711
1781765522674,7.2957,-0.5227,-3.0534,1.6474,-0.9411,0.6157
1781765522694,8.1102,-0.6227,-3.8052,1.587,-1.151,0.4098
1781765522714,8.4105,-0.4645,-4.8113,1.0378,-1.0446,0.0502
1781765522734,8.4783,-0.495,-5.0264,0.266,-0.6929,-0.2906
1781765522754,8.2124,-0.2081,-4.5813,-0.4442,-0.1959,-0.5465
1781765522774,7.4028,0.9478,-3.731,-0.959,0.2198,-0.8785
1781765522794,6.5579,2.0789,-2.9165,-1.2806,0.3885,-1.4125
1781765522814,5.6981,2.4777,-2.0501,-1.3595,0.2863,-2.0782
1781765522834,4.8711,1.9228,-1.2743,-1.2484,-0.0837,-2.7309
1781765522854,4.0074,0.4657,-0.8782,-1.1319,-0.6062,-3.2437
1781765522874,3.2869,-1.8726,-0.6606,-1.0972,-1.0991,-3.5036
1781765522895,2.2342,-4.0101,0.0058,-1.1072,-1.5339,-3.3192
1781765522916,0.845,-4.514,0.8477,-1.0858,-1.7627,-2.8245
1781765522934,0.0343,-3.5805,1.4656,-1.0558,-1.9554,-2.359
1781765522954,0.0513,-2.487,2.0399,-1.0587,-2.0259,-2.1164
1781765522974,0.4243,-1.7497,2.4841,-1.0645,-1.8841,-2.1785
1781765522995,0.8306,-1.8142,2.9526,-1.0153,-1.5385,-2.3293
1781765523016,0.7712,-2.2151,3.2594,-0.9432,-1.0827,-2.4542
1781765523034,0.1488,-2.6022,3.3798,-0.9091,-0.5866,-2.5046
1781765523054,-0.7302,-2.8867,3.1971,-0.9717,-0.1486,-2.4989
1781765523075,-1.5191,-3.1571,2.8893,-1.0757,0.1843,-2.4349
1781765523093,-2.0788,-3.095,2.8136,-1.139,0.3612,-2.3579
1781765523115,-2.5117,-3.0585,2.7125,-1.1493,0.486,-2.2428
1781765523134,-3.0889,-3.4091,2.8593,-1.1024,0.6143,-2.0534
1781765523154,-3.4066,-3.7913,3.057,-0.9467,0.6623,-1.8883
1781765523174,-3.2308,-4.3753,3.0056,-0.7464,0.633,-1.8538
1781765523194,-3.0745,-5.1327,2.7177,-0.588,0.5909,-1.8453
1781765523214,-3.676,-5.7772,2.5341,-0.4827,0.6201,-1.661
1781765523235,-4.2264,-6.6599,2.5237,-0.4248,0.7062,-1.3123
1781765523254,-4.8384,-7.656,2.578,-0.4026,0.9187,-0.8222
1781765523274,-6.1089,-7.8844,2.8588,-0.2828,1.2561,-0.1818
1781765523294,-6.3464,-8.0539,2.8556,-0.0259,1.4657,0.4754
1781765523315,-6.1129,-8.4284,2.1996,0.1699,1.4689,1.122
1781765523334,-6.1441,-8.1252,1.4227,0.2736,1.3084,1.7867
1781765523354,-5.9971,-6.8892,0.9143,0.4984,0.9724,2.356
1781765523375,-4.9395,-5.9931,0.66,0.9901,0.4885,2.7324
1781765523394,-3.3773,-5.3425,-0.0975,1.525,-0.1246,2.8673
1781765523413,-2.3163,-4.5803,-1.114,1.8709,-0.7449,2.9012
1781765523434,-1.649,-3.953,-2.1334,1.8709,-0.7449,2.9012
1781765523454,-1.1872,-3.5152,-2.6137,1.501,-1.5015,2.88
1781765523474,-0.3811,-3.2424,-2.3203,0.9819,-1.4548,2.8298
1781765523494,0.6475,-3.292,-1.6875,0.485,-1.2069,2.6605
1781765523513,1.4914,-3.4363,-0.5848,0.2547,-0.8764,2.5188
1781765523534,1.8019,-2.9541,0.1174,0.174,-0.5386,2.4085
1781765523554,1.8992,-2.0101,0.5967,0.1705,-0.1697,2.3116
1781765523574,2.1654,-1.1462,0.771,0.1792,0.2484,2.2163
1781765523594,2.3029,-0.5232,0.2909,0.0672,0.6722,2.0675
1781765523614,2.231,-0.2191,0.0398,-0.0955,0.9486,1.9896
1781765523634,2.4639,-0.1235,0.2008,-0.1675,1.0436,2.0259
1781765523653,2.7844,0.1212,0.8045,0.0436,1.021,2.0678
1781765523674,3.4235,0.3744,0.9509,0.4217,0.939,1.9894
1781765523694,4.0162,0.6993,0.7428,0.8463,0.739,1.8247
1781765523715,4.4197,1.076,0.2862,1.2187,0.5112,1.6474
1781765523734,4.491,1.3634,-0.699,1.2187,0.5112,1.6474
1781765523754,4.3144,1.4929,-1.5051,1.2158,0.2759,1.2453
1781765523774,4.0145,1.7133,-1.989,0.9888,0.2521,1.1814
1781765523794,4.0809,1.8711,-2.2214,0.7405,0.2421,1.1509
1781765523814,4.2897,2.0837,-2.0716,0.6024,0.2083,1.0949
1781765523834,4.6733,2.1779,-2.0032,0.5558,0.1577,0.9325
1781765523854,4.7831,2.0437,-1.9871,0.5703,0.0815,0.7625
1781765523874,4.9057,1.7245,-2.1159,0.6274,-0.045,0.642
1781765523894,5.155,1.3406,-2.3315,0.7039,-0.2262,0.5789
1781765523914,5.6962,0.7617,-2.639,0.7464,-0.3892,0.5669
1781765523934,6.2178,0.4085,-2.9143,0.7067,-0.5295,0.557
1781765523954,6.9242,0.2298,-3.1596,0.5594,-0.6306,0.4692
1781765523975,7.0999,0.7596,-3.2793,0.3315,-0.7029,0.2099
1781765523994,7.3973,0.9621,-3.2458,0.0532,-0.7952,-0.1886
1781765524014,7.5117,0.4833,-3.0261,-0.1693,-0.8883,-0.5508
1781765524033,7.1903,-0.0013,-2.5498,-0.1693,-0.8883,-0.5508
1781765524054,6.7822,0.2991,-2.1136,-0.3088,-1.0221,-0.8628
1781765524074,6.2211,1.0372,-1.7645,-0.3993,-1.045,-1.1606
1781765524094,5.6028,1.3886,-1.4225,-0.4928,-1.0307,-1.5499
1781765524114,5.1833,1.0497,-1.1343,-0.5925,-1.0092,-2.0076
1781765524134,4.8451,-0.3134,-1.0628,-0.7809,-0.9459,-2.3676
1781765524154,4.3458,-2.1235,-0.7719,-0.7809,-0.9459,-2.3676
1781765524174,3.2808,-3.3338,-0.1415,-0.9834,-0.8916,-2.4623
1781765524194,2.2962,-3.2873,0.5389,-1.1418,-0.8332,-2.2864
1781765524214,1.6066,-2.4787,1.3201,-1.2375,-0.8344,-2.0202
1781765524233,1.6066,-2.4787,1.3201,-1.2576,-0.8421,-1.9043
1781765524254,0.8321,-1.2913,2.584,-1.1598,-0.8335,-1.9761
1781765524274,0.7028,-1.7226,2.8032,-0.9465,-0.819,-2.21
1781765524294,0.1367,-2.2005,2.6199,-0.7327,-0.7701,-2.4346
1781765524314,-0.6835,-2.8808,2.462,-0.6771,-0.6164,-2.5744
1781765524334,-1.5128,-3.3531,2.4828,-0.7866,-0.3383,-2.5927
1781765524354,-2.3382,-3.5613,2.5083,-0.9535,0.0088,-2.5292
1781765524373,-2.961,-3.5716,2.7195,-1.1021,0.3282,-2.3909
1781765524394,-3.2938,-3.6452,2.9179,-1.1453,0.5486,-2.2548
1781765524415,-3.5475,-3.7456,3.0081,-1.081,0.6745,-2.1669
1781765524434,-3.5475,-3.7456,3.0081,-0.9515,0.7169,-2.1658
1781765524454,-4.2496,-4.7665,2.5975,-0.862,0.7426,-2.1973
1781765524474,-5.0091,-5.131,2.3934,-0.8555,0.8039,-2.1655
1781765524494,-5.5209,-5.7799,2.2769,-0.9088,0.8914,-2.0519
1781765524514,-5.7996,-6.8339,2.0101,-0.9532,1.0596,-1.9125
1781765524534,-6.235,-7.954,1.382,-0.9681,1.3478,-1.7608
1781765524554,-7.2435,-8.5411,0.6443,-0.9895,1.6142,-1.4586
1781765524574,-8.1103,-8.542,-0.3908,-1.0581,1.7761,-0.8964
1781765524594,-8.7297,-7.8278,-0.802,-1.2075,1.6303,-0.079
1781765524614,-8.7297,-7.8278,-0.802,-1.2638,1.1708,0.9317
1781765524633,-8.0826,-6.9533,-0.2159,-0.9198,0.4598,1.877
1781765524654,-3.6667,-5.9543,1.0043,-0.1294,-0.3997,2.5406
1781765524674,-3.6667,-5.9543,1.0043,0.9847,-1.2254,2.8499
1781765524694,-1.7798,-5.0864,0.4084,2.0129,-1.8706,2.8711
1781765524714,-1.0461,-4.1325,-0.9025,2.408,-2.1527,2.7176
1781765524735,-0.552,-3.7975,-2.3791,1.9325,-1.9384,2.4871
1781765524753,-0.4499,-3.5928,-2.8984,0.9579,-1.2946,2.4034
1781765524774,-0.4413,-3.4498,-2.383,-0.0496,-0.5612,2.4964
1781765524794,-0.3949,-2.9024,-0.8624,-0.6219,-0.0248,2.6639
1781765524814,-0.0473,-2.3138,0.7281,-0.6384,0.2059,2.7877
1781765524834,0.561,-1.5191,1.9686,-0.1359,0.1196,2.8135
1781765524854,1.3293,-0.6149,2.201,0.5461,-0.0796,2.6823
1781765524874,2.0375,-0.2384,1.4088,0.9611,-0.2943,2.4769
1781765524894,2.4552,-0.218,0.4932,1.0632,-0.3771,2.35
1781765524914,2.975,-0.2736,-0.0416,1.0131,-0.4135,2.2912
1781765524935,3.6772,-0.3222,-0.1248,0.9954,-0.4058,2.2504
1781765524953,4.3804,-0.1357,0.0199,1.0773,-0.3681,2.173
1781765524974,5.0048,0.2112,0.0445,1.2513,-0.2651,2.0173
1781765524994,5.6696,0.6196,-0.0915,1.5071,0.0039,1.772
1781765525015,5.9024,1.5089,-0.7104,1.611,0.4664,1.4941
1781765525035,5.7143,2.2892,-1.7501,1.3635,0.9784,1.123
1781765525054,5.5751,2.5698,-2.5723,0.8989,1.5033,0.73
1781765525074,5.3422,2.3675,-2.9368,0.476,1.9561,0.4351
1781765525094,5.0596,2.0279,-2.9847,0.2127,2.1575,0.2579
1781765525114,4.9708,1.2844,-2.8852,0.1807,2.1935,0.186
1781765525135,5.1111,0.9499,-2.9112,0.2636,1.9915,0.2091
1781765525154,5.3986,0.7262,-3.2947,0.197,1.6659,0.2094
1781765525174,5.5567,0.8753,-3.3253,-0.0025,1.4197,0.2544
1781765525194,6.4171,0.9279,-3.2998,-0.3736,1.2383,0.0966
1781765525214,7.6744,0.2171,-3.2275,-0.8507,0.8756,-0.4154
1781765525235,8.6184,-1.771,-2.7917,-1.1295,0.2773,-0.8721
1781765525253,8.1859,-3.4641,-1.6109,-1.0327,-0.4638,-0.6766
1781765525274,6.6566,-2.4969,0.0652,-0.6185,-1.2844,-0.109
1781765525293,5.973,0.5827,0.8401,-0.1431,-1.8883,0.0652
1781765525314,6.0338,3.1508,1.0861,0.2374,-2.1614,-0.4888
1781765525335,6.1579,4.1677,1.206,0.4661,-2.076,-1.4206
1781765525354,5.8701,3.5545,0.8987,0.4,-1.6691,-2.3411
1781765525374,5.3012,1.7741,0.1379,0.0104,-1.0943,-3.0694
1781765525394,4.0423,-0.6508,-0.343,-0.4863,-0.4949,-3.326
1781765525414,2.5487,-2.4298,-0.2309,-0.8839,-0.1967,-3.0109
1781765525435,1.1698,-2.8926,0.1702,-1.0903,-0.3059,-2.407
1781765525454,0.6304,-2.2128,0.866,-1.1158,-0.7071,-2.0003
1781765525474,0.9797,-1.3818,1.7327,-0.9681,-1.1148,-1.9799
1781765525494,1.428,-0.911,2.2228,-0.7465,-1.4719,-2.3079
1781765525513,1.7751,-0.8967,2.4929,-0.5961,-1.6424,-2.7222
1781765525535,1.6408,-1.4762,2.5694,-0.6295,-1.4357,-3.0414
1781765525554,1.0167,-2.2479,2.552,-0.8763,-1.0986,-3.2557
1781765525574,0.3691,-2.9184,2.4817,-1.2127,-0.5664,-3.4071
1781765525594,-0.5915,-3.5511,2.4891,-1.5883,-0.0008,-3.4658
1781765525614,-1.288,-4.1017,2.4113,-1.8883,0.4546,-3.5031
1781765525635,-2.0333,-4.6612,2.5262,-1.9671,0.729,-3.481
1781765525653,-2.3211,-5.5045,2.7115,-1.8169,0.8895,-3.3672
1781765525674,-2.9891,-6.4331,2.9099,-1.4169,1.0402,-3.1763
1781765525694,-3.8248,-6.8726,2.823,-0.8853,1.1342,-2.9164
1781765525714,-4.7076,-7.3957,2.1903,-0.5229,1.1588,-2.6284
1781765525735,-5.6103,-7.7782,1.3987,-0.3674,1.1996,-2.3117
1781765525754,-5.8874,-8.5862,0.744,-0.2289,1.2569,-1.9142
1781765525774,-6.1604,-9.6295,0.0703,-0.1302,1.2543,-1.2585
1781765525794,-6.7558,-10.2099,-0.5713,-0.0938,1.1038,-0.3211
1781765525814,-6.9845,-10.6741,-1.223,-0.067,0.6359,0.8496
1781765525834,-7.9989,-10.8634,-2.1885,-0.1135,-0.4316,2.3258
1781765525855,-7.8554,-10.1369,-2.0623,-0.0483,-1.6679,3.6032
1781765525874,-5.6732,-9.1224,-0.0235,0.5327,-2.189,4.434
1781765525894,-3.1111,-8.4014,1.9837,1.5807,-2.1628,4.8951
1781765525914,-0.722,-7.2058,2.3917,2.6682,-1.8099,4.8911
1781765525934,0.2786,-5.2475,1.3418,3.303,-1.4338,4.4861
1781765525954,0.4115,-4.6183,-0.8922,3.1539,-1.1997,4.1334
1781765525975,0.6421,-4.045,-2.7742,2.4346,-0.9432,3.8268
1781765525994,1.5035,-3.5241,-3.4453,1.5939,-0.7751,3.4884
1781765526014,1.9605,-2.9948,-2.7445,0.9252,-0.6718,3.1447
1781765526036,2.2329,-2.7379,-1.5677,0.5697,-0.6332,2.8352
1781765526054,2.51,-2.2949,-0.2429,0.5703,-0.5941,2.5882
1781765526074,2.7862,-1.44,0.579,0.6512,-0.331,2.3588
1781765526094,3.4893,-0.2093,0.0594,0.697,-0.1306,2.0762
1781765526114,2.8626,0.2487,1.05,0.905,0.252,1.8602
1781765526136,3.3459,0.0153,0.4789,0.8391,0.5353,1.7408
1781765526153,3.4185,-0.1088,-0.0526,0.7149,0.8539,1.7702
1781765526174,3.764,-0.2484,-0.234,0.7194,0.967,1.8178
1781765526194,4.2809,-0.1123,-0.3171,0.8724,0.9085,1.8007
1781765526214,4.7076,0.203,-0.5482,1.088,0.7337,1.7194
1781765526235,4.935,0.6319,-0.9131,1.088,0.7337,1.7194
1781765526254,4.9299,0.8937,-1.4568,1.4185,0.4198,1.4971
1781765526274,5.0578,1.1367,-2.0445,1.3912,0.3997,1.4042
1781765526294,5.1631,1.3785,-2.4968,1.2913,0.4486,1.294
1781765526314,5.3093,1.636,-2.8144,1.1733,0.4956,1.1322
1781765526335,5.4813,1.8253,-3.0428,1.1733,0.4956,1.1322
1781765526354,5.5832,1.7045,-3.2751,1.0793,0.5678,0.6998
1781765526374,5.5544,1.6278,-3.829,0.9687,0.6359,0.538
1781765526395,5.5272,1.4369,-4.3708,0.7311,0.6827,0.4008
1781765526414,5.7319,1.2013,-4.682,0.4611,0.6919,0.283
1781765526436,6.3292,1.0415,-4.7656,0.4611,0.6919,0.283
1781765526454,6.9675,0.8346,-4.834,-0.1308,0.4009,-0.2203
1781765526474,7.1789,0.6909,-4.6229,-0.4632,0.1292,-0.6094
1781765526493,7.5338,0.2609,-4.2666,-0.4632,0.1292,-0.6094
1781765526514,7.591,-0.7081,-3.7992,-1.1596,-0.3505,-1.4615
1781765526535,7.6782,-2.1608,-2.8466,-1.1596,-0.3505,-1.4615
1781765526554,6.9957,-2.6155,-1.5295,-1.4237,-0.3339,-1.6276
1781765526574,6.1662,-1.3765,-0.2804,-1.3743,-0.2203,-1.6703
1781765526594,5.6138,-0.1993,0.5336,-1.3743,-0.2203,-1.6703
1781765526615,4.8562,0.434,0.971,-1.1609,-0.2283,-2.005
1781765526635,4.0417,0.2546,0.7578,-0.902,-0.2927,-2.4661
1781765526654,3.3578,-1.1084,0.1527,-0.7463,-0.4758,-2.943
1781765526674,2.4686,-2.9171,0.1955,-0.761,-0.6698,-3.2822
1781765526693,1.335,-4.0844,0.4958,-0.8275,-0.811,-3.2705
1781765526713,0.3199,-4.014,0.9669,-0.8994,-1.0006,-2.9409
1781765526734,0.0493,-3.4225,1.5492,-0.9208,-1.2633,-2.4994
1781765526754,0.2069,-2.6459,2.1451,-0.9015,-1.4966,-2.1806
1781765526774,0.3616,-2.2839,2.5099,-0.8609,-1.5803,-2.1056
1781765526794,0.3404,-2.367,2.9732,-0.8406,-1.5241,-2.2109
1781765526815,0.022,-2.9375,3.3398,-0.7871,-1.3075,-2.3578
1781765526837,0.022,-2.9375,3.3398,-0.6838,-1.0045,-2.452
1781765526854,-1.5038,-3.2803,3.3776,-0.5894,-0.7506,-2.4859
1781765526873,-2.0695,-3.4961,3.2359,-0.5862,-0.4674,-2.5001
1781765526895,-2.7561,-3.5308,3.1794,-0.6538,-0.1503,-2.468
1781765526914,-3.1485,-3.7547,3.0808,-0.7251,0.2155,-2.3959
1781765526934,-3.8504,-4.2349,2.9876,-0.7396,0.4797,-2.3577
1781765526954,-4.4657,-4.8699,2.8416,-0.612,0.5553,-2.2847
1781765526974,-5.3049,-5.5815,2.3385,-0.3113,0.4545,-2.2019
1781765526994,-6.5145,-5.7672,1.8536,-0.0151,0.1502,-2.0795
1781765527014,-7.5079,-5.9407,1.3873,0.0972,-0.1468,-1.8476
1781765527034,-7.6907,-6.6621,1.1584,-0.0517,-0.2276,-1.5294
1781765527054,-7.6875,-7.8618,1.2454,-0.3522,-0.129,-1.1879
1781765527074,-7.7653,-8.6638,1.5139,-0.6058,0.1484,-0.6851
1781765527094,-6.9545,-9.4531,1.6375,-0.6987,0.4268,0.0007
1781765527114,-6.9545,-9.4531,1.6375,-0.6843,0.5929,0.7731
1781765527134,-6.6886,-9.4701,1.5902,-0.6056,0.6171,1.7047
1781765527154,-6.0411,-8.6703,1.7866,-0.3298,0.4697,2.5835
1781765527175,-2.1101,-6.9105,1.5874,0.1757,0.3075,3.1499
1781765527194,-2.1101,-6.9105,1.5874,0.7954,0.165,3.4215
1781765527215,-0.2428,-5.8288,0.6547,1.2932,0.0392,3.4712
1781765527237,0.5415,-4.5228,-0.8531,1.2946,-0.118,3.2741
1781765527254,0.9259,-3.7676,-2.098,0.8723,-0.2153,3.0574
1781765527275,1.2166,-3.3539,-2.0973,0.3466,-0.1133,2.9292
1781765527294,1.693,-3.2546,-1.3032,-0.0686,0.028,2.78
1781765527314,1.9727,-2.9965,-0.1177,-0.1963,0.1412,2.6543
1781765527334,2.0037,-2.3464,0.9552,-0.0162,0.1551,2.584
1781765527354,2.2317,-1.4615,1.5547,0.3503,0.1317,2.5049
1781765527374,2.9135,-0.4918,1.5759,0.772,0.1989,2.3376
1781765527395,3.5254,0.5117,0.7935,0.9842,0.4544,2.0829
1781765527414,3.6789,1.3737,-0.4426,0.7397,0.7485,1.7542
1781765527434,3.4954,1.7519,-1.2429,0.2107,1.072,1.5068
1781765527454,3.2964,1.6486,-1.3561,-0.296,1.3075,1.3699
1781765527474,3.2025,1.5406,-0.6327,-0.5217,1.3405,1.3142
1781765527494,3.2538,1.2487,0.1345,-0.471,1.1904,1.3031
1781765527514,3.2402,1.0373,0.8697,-0.1676,0.8794,1.3636
1781765527537,3.3484,0.8977,1.21,0.3226,0.531,1.4901
1781765527554,3.7489,0.7862,1.2605,0.9434,0.2948,1.7293
1781765527574,4.2253,1.095,0.5765,1.4049,0.1934,1.9191
1781765527594,4.8343,1.2614,-0.2824,1.572,0.2473,1.9859
1781765527614,5.5179,0.5562,-0.8552,1.5343,0.5598,2.0577
1781765527634,6.1527,-0.545,-0.5863,1.5511,0.9529,2.2917
1781765527653,5.8537,-1.7987,0.1532,1.6316,1.5019,2.8216
1781765527673,6.4739,-2.6766,1.1367,1.9993,1.8064,3.2685
1781765527694,8.1836,-2.4874,1.4418,2.6635,1.7077,3.2813
1781765527714,10.2345,-2.5268,0.0848,3.1658,1.3238,2.8466
1781765527734,11.4159,-1.9872,-2.2427,3.0518,0.9371,2.0924
1781765527754,12.0473,-1.5407,-5.205,1.8809,0.6804,1.1473
1781765527774,11.1025,-1.1175,-6.7286,0.1357,0.6341,0.2886
1781765527795,9.7805,-1.5513,-5.207,-1.0499,0.2383,-0.2912
1781765527814,8.4613,-1.523,-2.0444,-1.0356,-0.6971,-0.7588
1781765527834,7.42,-0.407,0.3554,-0.3472,-1.719,-1.2464
1781765527854,6.2185,1.0894,0.058,-0.1093,-2.137,-1.8184
1781765527874,5.6453,1.8733,-1.02,-0.4953,-2.0676,-2.484
1781765527894,5.1748,1.3961,-1.4039,-1.1181,-1.7774,-3.1659
1781765527914,3.5061,-0.6787,-0.7929,-1.6352,-1.5753,-3.5245
1781765527934,-5.6752,-4.8722,-6.5432,-2.59,-2.0715,-3.3256
1781765527954,0.4399,-2.9548,4.4072,-1.1205,-2.5026,-3.536
1781765527974,2.2863,-2.2494,3.4935,-0.3253,-3.8265,-4.0113
1781765527994,1.4628,-2.4358,2.5378,-0.1558,-3.9626,-3.899
1781765528014,-0.2643,-4.175,2.2282,-1.0804,-3.1807,-3.3163
1781765528034,-1.4976,-4.106,2.7585,-2.1082,-1.5726,-2.7169
1781765528054,-1.325,-3.6304,3.8769,-2.46,-0.6022,-2.5253
1781765528074,-0.9433,-2.9874,4.7001,-2.1287,-0.3174,-2.7392
1781765528095,-0.8351,-2.1742,4.6058,-1.6519,-0.4478,-3.1863
1781765528114,-0.7307,-2.4724,3.4429,-1.3867,-0.5879,-3.5153
1781765528134,-1.913,-3.7512,2.6569,-1.4385,-0.5481,-3.4126
1781765528154,-3.6467,-4.5735,2.482,-1.5514,-0.491,-2.9786
1781765528174,-4.8898,-4.3565,3.1409,-1.4692,-0.5385,-2.4853
1781765528194,-4.9674,-4.1151,3.7862,-1.1515,-0.6753,-2.1746
1781765528214,-4.3729,-4.4139,4.24,-0.7188,-0.695,-2.0873
1781765528234,-4.4669,-4.7825,4.1552,-0.3864,-0.6321,-2.0802
1781765528254,-4.9808,-5.5229,3.8925,-0.1479,-0.5025,-1.8993
1781765528275,-6.2606,-6.6732,4.1369,-0.0176,-0.2069,-1.444
1781765528294,-7.5646,-7.4322,4.126,0.065,0.1829,-0.7386
1781765528314,-7.9413,-7.7856,4.0701,0.1749,0.4739,0.0233
1781765528334,-7.6301,-7.5973,3.596,0.2925,0.6179,0.6457
1781765528354,-6.6208,-7.4768,2.9202,0.3078,0.5843,1.0491
1781765528374,-5.8728,-7.2123,2.5338,0.2309,0.5764,1.3839
1781765528394,-5.2723,-6.8208,2.4654,0.1896,0.6409,1.716
1781765528414,-4.6407,-6.4338,2.4175,0.2314,0.6321,2.0354
1781765528434,-4.1488,-6.1274,2.2245,0.311,0.4532,2.3596
1781765528454,-3.6829,-5.6197,2.2153,0.311,0.4532,2.3596
1781765528474,-2.7181,-5.1697,2.2323,0.872,-0.2609,2.8599
1781765528494,-1.4034,-4.8015,2.0669,1.4219,-0.4853,2.927
1781765528515,0.0771,-4.4511,1.2287,1.8303,-0.5391,2.9435
1781765528534,1.1037,-3.8681,-0.0487,1.7,-0.3239,2.7651
1781765528553,1.5966,-3.3765,-1.1735,1.106,0.0348,2.5564
1781765528574,1.6309,-2.6833,-1.214,0.4742,0.4522,2.4793
1781765528594,1.7865,-2.5682,-0.4064,0.0937,0.8311,2.5395
1781765528614,1.9822,-2.176,0.6726,0.0985,1.0364,2.6421
1781765528634,2.4565,-1.4372,1.3371,0.416,1.0709,2.6917
1781765528654,3.2903,-0.8087,1.4258,0.416,1.0709,2.6917
1781765528674,3.9752,-0.4657,1.0009,1.1644,1.0331,2.535
1781765528694,4.5335,-0.0274,0.3151,1.3697,0.975,2.3814
1781765528714,5.0055,0.1347,-0.3835,1.4694,0.9145,2.2372
1781765528735,5.2494,0.357,-0.8492,1.5001,0.8133,2.1001
1781765528754,5.6447,0.5458,-1.2758,1.5153,0.6642,1.926
1781765528774,5.8904,0.6016,-1.6164,1.5296,0.4973,1.7413
1781765528794,5.8365,0.7051,-1.9169,1.538,0.3081,1.5773
1781765528814,5.8252,0.847,-2.2714,1.5403,0.0818,1.436
1781765528834,5.9007,0.7814,-2.6421,1.5259,-0.123,1.3137
1781765528854,6.1875,0.7137,-2.9331,1.586,-0.2611,1.1633
1781765528874,6.7916,0.3454,-3.2102,1.71,-0.2512,1.0243
1781765528893,6.8902,0.3076,-3.8371,1.6969,-0.1123,0.8597
1781765528914,6.9933,0.324,-4.6075,1.4992,0.0678,0.6586
1781765528934,7.1617,0.2042,-5.3038,1.2306,0.1896,0.427
1781765528955,7.8069,-0.4215,-5.7623,0.9993,0.1223,0.1311
1781765528974,8.461,-0.8581,-5.9866,0.9993,0.1223,0.1311
1781765528994,8.8268,-0.7978,-6.6713,0.8157,-0.0743,-0.175
1781765529014,8.692,-0.5817,-7.2205,-0.4491,-0.5124,-0.9889
1781765529034,8.7474,-1.4662,-7.1306,-0.4491,-0.5124,-0.9889
1781765529054,8.5821,-2.789,-5.7502,-1.3372,-0.6514,-1.48
1781765529075,7.9038,-2.8963,-4.1637,-1.9394,-0.8163,-1.6481
1781765529094,6.9892,-1.4593,-2.9254,-2.2389,-1.0327,-1.6785
1781765529114,6.1028,-0.5196,-2.1282,-2.4449,-1.2854,-1.8777
1781765529135,5.6884,-0.1792,-1.233,-2.6748,-1.4267,-2.41
1781765529154,5.5913,-1.9721,-0.3545,-2.8365,-1.5305,-3.1769
1781765529174,4.7483,-4.6587,0.6281,-2.9197,-1.5537,-3.7572
1781765529194,3.1682,-6.3412,1.5494,-3.0001,-1.5013,-4.0344
1781765529215,1.9047,-6.5163,2.5278,-2.934,-1.3531,-3.9671
1781765529234,1.4787,-5.8295,3.0902,-2.6507,-1.4216,-3.6377
1781765529255,1.4787,-5.8295,3.0902,-2.3206,-1.5143,-3.3942
1781765529274,1.3383,-4.5345,3.5597,-2.046,-1.4397,-3.3305
1781765529294,1.0186,-5.5526,3.9428,-1.8176,-1.2026,-3.2681
1781765529314,-0.0352,-5.7378,3.99,-1.6556,-0.5707,-2.9541
1781765529334,-0.9605,-5.5022,4.1182,-1.5609,0.062,-2.6898
1781765529354,-0.9605,-5.5022,4.1182,-1.5051,0.4766,-2.541
1781765529374,-2.2811,-5.3008,3.8939,-1.3636,0.7213,-2.3977
1781765529394,-2.7823,-5.2313,3.673,-1.1205,0.7814,-2.304
1781765529414,-3.4698,-5.0788,3.5076,-0.8682,0.7156,-2.2322
1781765529434,-3.4698,-5.0788,3.5076,-0.6124,0.6022,-2.151
1781765529455,-3.9165,-4.975,3.3107,-0.379,0.3797,-2.1176
1781765529474,-4.7726,-5.4263,3.013,-0.1606,0.2302,-2.0626
1781765529493,-5.1897,-5.9261,2.786,-0.0348,0.1266,-2.0112
1781765529514,-5.829,-6.3009,2.6537,-0.0184,0.1089,-1.9114
1781765529534,-6.3476,-6.8085,2.4248,-0.0814,0.2206,-1.7255
1781765529556,-6.7362,-7.3611,2.3352,-0.1987,0.3434,-1.5371
1781765529574,-6.7362,-7.3611,2.3352,-0.285,0.4737,-1.2977
1781765529594,-7.0828,-8.1273,1.9999,-0.3857,0.5759,-0.9279
1781765529614,-7.2513,-8.8076,1.9124,-0.4315,0.5773,-0.3938
1781765529635,-6.9854,-9.5231,1.848,-0.4263,0.5009,0.3263
1781765529655,-7.1139,-9.413,1.9611,-0.3584,0.3849,1.2003
1781765529674,-6.7144,-8.81,2.2253,-0.0566,0.2737,2.1211
1781765529694,-5.3765,-8.1747,2.5745,0.5714,0.2306,2.9901
1781765529714,-3.4937,-7.5823,1.9441,1.189,0.1858,3.6254
1781765529734,-1.2744,-6.7704,0.74,1.5247,0.0347,3.8462
1781765529755,0.7417,-5.7752,-0.622,1.5018,-0.1475,3.6887
1781765529773,1.5546,-4.8231,-1.4847,1.3145,-0.4258,3.3776
1781765529795,2.4976,-4.4227,-1.4148,1.3937,-0.7294,3.1681
1781765529814,3.322,-3.9663,-1.6391,1.3005,-0.7879,2.9482
1781765529834,3.3387,-3.3002,-2.2861,0.7453,-0.6146,2.7368
1781765529854,3.2125,-2.5409,-1.6989,0.143,-0.1256,2.7551
1781765529875,3.298,-1.7329,-0.4517,-0.2372,0.4263,2.8661
