timestamp_ms,acc_x,acc_y,acc_z,gyro_x,gyro_y,gyro_z
1781765971018,0.419,-1.2312,-1.2551,0.5113,0.3179,0.0794
1781765971036,-0.2423,-0.4368,-1.6842,0.2426,-0.2389,0.0934
1781765971056,-0.2281,0.0971,-0.7425,0.0138,-0.7546,0.0453
1781765971077,0.0845,-0.3662,-0.1322,-0.0572,-0.9092,0.0488
1781765971096,0.1485,-0.364,0.4582,-0.0747,-0.916,0.0894
1781765971118,0.21,-0.3352,0.596,0.0195,-0.7725,0.1831
1781765971137,0.2801,-0.4271,0.0544,0.1275,-0.5023,0.1656
1781765971156,0.1631,-0.2207,-0.2591,0.1933,-0.3388,0.0391
1781765971176,-0.1137,-0.2235,-0.8149,0.1247,-0.2991,-0.0044
1781765971197,-0.1461,-0.3403,-0.9828,-0.0488,-0.2605,-0.0293
1781765971217,-0.1461,-0.3403,-0.9828,-0.1951,-0.2482,-0.0473
1781765971236,-0.0787,-0.3947,-0.0812,-0.2103,-0.0927,-0.0853
1781765971257,-0.4647,-0.671,-0.3355,-0.1956,-0.0239,-0.0889
1781765971276,-0.8539,-0.8824,-0.7871,-0.242,-0.1456,0.0011
1781765971296,-1.4189,-1.0118,-1.2555,-0.3258,-0.3707,0.2205
1781765971316,-1.4189,-1.0118,-1.2555,-0.3674,-0.6594,0.5173
1781765971337,-0.9638,-1.3131,-0.2517,-0.2175,-0.9747,0.7722
1781765971356,-0.3244,-1.4888,-0.2907,0.083,-1.0084,0.8773
1781765971377,-0.4816,-1.9236,-0.6709,0.4099,-1.2195,0.9144
1781765971397,-0.997,-3.076,-1.2005,0.6519,-1.6292,1.2152
1781765971416,-0.997,-3.076,-1.2005,0.891,-2.6182,1.8849
1781765971437,-2.5475,-5.4123,-3.2288,1.1194,-4.0579,2.7894
1781765971456,-2.5475,-5.4123,-3.2288,1.2534,-5.5975,3.522
1781765971476,-4.3511,-6.2228,-3.5864,1.4709,-6.4525,3.3981
1781765971496,-4.2682,-5.4368,-1.5475,1.831,-6.3247,3.7988
1781765971517,-3.8825,-5.8754,0.1983,2.0869,-5.7286,4.4138
1781765971537,-2.2309,-5.753,0.5232,2.1061,-4.9754,4.7959
1781765971556,-1.563,-4.5129,-0.2947,2.0172,-4.3636,4.7284
1781765971576,-0.8869,-3.2044,-0.8129,1.918,-4.2358,4.7143
1781765971596,-0.597,-3.5052,-0.9016,1.8444,-3.8767,4.8243
1781765971617,0.5925,-3.3427,-0.5554,1.6252,-3.0166,4.6467
1781765971637,2.1483,-3.0241,-0.1504,1.2785,-2.0344,4.4428
1781765971656,3.4724,-2.4743,0.4741,1.1201,-1.0494,4.3179
1781765971676,4.6851,-1.672,0.3545,0.9599,-0.3613,3.8402
1781765971696,5.2775,-1.06,-1.0536,0.6709,-0.1409,3.3741
1781765971718,4.4507,-1.0577,-2.3648,0.6709,-0.1409,3.3741
1781765971736,4.1436,-1.4474,-2.2998,0.2488,-0.6136,3.1507
1781765971757,4.4649,-0.8197,-1.5188,0.1035,-1.716,2.9431
1781765971775,6.6996,0.8103,-3.8922,-0.9678,-2.4619,2.0449
1781765971797,15.0133,4.8767,-11.2458,-2.9724,1.6223,0.9129
1781765971817,14.5316,1.8454,-5.3917,-2.9724,1.6223,0.9129
1781765971837,5.3077,-0.6324,4.4519,-2.1773,2.7957,0.3746
1781765971857,1.0574,-0.763,6.0386,-0.8033,1.2624,0.6123
1781765971876,0.0613,0.3086,5.4796,-0.0391,-0.1481,0.7733
1781765971897,-0.2938,0.2984,3.0528,-0.1512,-0.7882,1.0874
1781765971917,-0.2888,0.4564,2.0888,-0.1512,-0.7882,1.0874
1781765971937,0.9123,-0.3326,3.3724,-0.6578,-0.5112,1.4366
1781765971956,1.4758,-0.7472,3.2011,-0.9579,-0.0071,1.5834
1781765971976,2.8217,-1.3269,2.2579,-0.9579,-0.0071,1.5834
1781765971996,2.9276,-0.9321,0.2236,-0.6759,1.2508,0.7136
1781765972016,1.5366,-0.7336,-1.1561,-0.3768,0.7339,0.345
1781765972035,0.0032,-1.6454,-3.1442,-0.3768,0.7339,0.345
1781765972057,0.293,-2.0089,-2.9775,0.3213,-0.3871,0.1608
1781765972076,1.4329,-2.1859,-1.7296,0.3213,-0.3871,0.1608
1781765972097,2.5576,-1.1944,-0.8074,0.541,0.2296,-0.0944
1781765972119,1.805,0.2964,-2.3844,0.541,0.2296,-0.0944
1781765972136,0.6886,-0.3453,-0.9205,0.4307,0.4161,-0.2653
1781765972157,0.4009,-0.655,1.3239,0.8403,0.2723,-0.3599
1781765972176,0.7161,-0.4752,2.0214,0.9421,0.3426,-0.3412
1781765972197,-1.5494,2.8433,-3.1676,1.0892,0.8627,-0.1326
1781765972219,-2.3845,3.7888,-2.7145,0.3186,1.3621,-0.1625
1781765972237,-3.4703,4.5586,-1.2722,0.1859,1.1457,-0.0194
1781765972256,-3.768,4.9619,-0.3558,0.2869,0.3042,0.0701
1781765972276,-2.9431,5.8318,-1.476,0.0954,-0.1999,0.0852
1781765972297,-2.581,3.6664,0.9231,0.0952,-0.2031,0.1741
1781765972318,-2.4366,3.4663,-0.5801,-0.138,-0.4006,0.2929
1781765972337,-1.9647,2.4966,-1.0089,-0.4551,-0.4579,0.3453
1781765972356,-1.1445,0.9712,-0.4637,-0.5482,-0.6437,0.2728
1781765972377,-0.4885,-1.1162,-0.8186,-0.446,-1.018,0.2347
1781765972397,-0.6381,-1.4395,0.2503,-0.3467,-1.2614,0.3726
1781765972418,0.5599,-2.0744,0.0504,-0.0769,-0.901,0.4114
1781765972437,0.067,-1.8311,0.4682,-0.205,0.1721,0.5599
1781765972456,-0.3393,-2.1092,1.0097,-0.2544,0.9751,0.4946
1781765972476,-0.9941,-1.3077,1.1696,-0.0486,1.0949,0.4042
1781765972497,-1.0332,-1.3921,1.8096,0.2902,0.7711,0.3204
1781765972517,-1.1601,-1.0487,1.2812,0.5641,0.5909,0.2827
1781765972536,-0.9407,-1.4909,0.6011,0.4593,0.5808,0.3545
1781765972557,0.8305,-1.3376,0.3164,0.005,0.5096,0.1311
1781765972576,-0.7016,-2.417,1.2215,-0.3574,0.2662,-0.1981
1781765972597,-1.5984,0.6533,0.9609,-0.7153,0.3425,-0.0504
1781765972619,-2.7762,1.1701,0.6907,-0.9316,0.5984,0.4711
1781765972636,0.0736,-3.9067,2.9282,-0.7467,1.0178,0.7494
1781765972657,-1.9395,-3.7321,0.2452,-0.41,1.9518,1.4273
1781765972676,-2.6284,-3.0184,-0.4151,-0.0331,2.1212,2.2082
1781765972697,-2.5515,-1.6223,-0.522,0.3241,1.7446,2.7203
1781765972719,-0.9912,-0.484,-0.0029,0.3657,1.2661,3.2494
1781765972736,2.9678,2.467,1.5321,0.3352,1.1064,3.2164
1781765972756,4.8806,5.1772,-0.0902,0.7733,0.964,2.4325
1781765972777,4.6679,5.6414,-3.0666,0.5523,0.2678,1.709
1781765972796,3.0829,6.2766,-0.4005,0.5279,-0.7426,0.5584
1781765972816,5.0113,7.1621,2.7954,0.7311,-0.9884,-0.5407
1781765972836,3.2068,4.8828,0.5607,0.086,-0.4729,-1.5814
1781765972856,3.1874,-5.5139,3.6644,-0.1021,0.5117,-2.1621
1781765972876,-0.0301,-14.7067,1.0492,-0.148,1.8987,-1.7087
1781765972897,2.0802,-9.8741,-0.8227,0.475,0.5569,-0.4595
1781765972916,3.1452,-5.1232,-1.0308,0.4946,0.0807,-0.2017
1781765972936,1.7461,-0.1817,-0.4527,-0.2172,-0.323,-0.0159
1781765972957,1.377,1.2762,2.2249,-0.8389,-0.6482,0.2252
1781765972977,1.3537,2.3593,0.8722,-1.0141,-0.5002,0.1465
1781765972997,0.0148,1.15,0.2226,-0.8433,0.005,0.3676
1781765973016,-1.1974,0.7024,-0.6242,-0.8742,0.4796,0.6322
1781765973037,-1.3254,0.845,-0.1296,-0.5256,0.3011,0.6924
1781765973056,-0.8536,0.8045,2.0169,0.0584,0.7401,0.6651
1781765973076,1.4805,1.3617,-1.0572,0.292,0.0755,0.5028
1781765973097,1.5569,1.1077,-0.6086,0.0858,-0.2189,0.4854
1781765973116,1.4676,1.1515,-0.3249,-0.1916,-0.2558,0.4745
1781765973136,1.3753,0.6984,-0.1477,-0.3316,-0.1221,0.4289
1781765973157,0.6845,-0.0529,0.0426,-0.3608,-0.0899,0.5282
1781765973176,-0.0122,-0.5655,0.2757,-0.2903,-0.2572,0.7684
1781765973197,-0.1288,-0.3862,0.483,-0.2977,-0.3045,0.7944
1781765973216,-0.1421,0.1507,1.1141,-0.2591,-0.3465,0.6449
1781765973236,0.0376,0.3695,1.2374,-0.1736,-0.362,0.5134
1781765973256,-0.4057,1.95,1.5503,-0.0433,-0.2453,0.4412
1781765973277,-0.751,6.1096,1.4791,0.1959,-0.1967,0.0442
1781765973296,-0.8814,5.683,1.7606,0.5326,0.2937,-0.0215
1781765973316,-1.3501,3.1651,1.1942,0.4617,0.2419,0.151
1781765973337,-1.6945,4.2467,0.8014,0.58,-0.1725,0.2423
1781765973356,-1.9166,4.6266,-0.1952,-0.1861,-1.0554,0.5634
1781765973376,-1.9556,6.4789,0.599,-0.4013,-0.8322,0.3493
1781765973397,-5.2217,-5.3624,2.0604,-0.8283,-0.7593,1.0275
1781765973417,2.7562,-9.5452,7.6617,-0.0334,-0.6395,0.623
1781765973436,0.9769,6.3645,-4.6879,0.1356,-1.6609,0.1951
1781765973457,2.221,-12.0045,-0.245,-0.3171,-1.7931,-1.3542
1781765973476,-2.0809,-5.2541,1.263,-0.9069,-0.8427,-1.2399
1781765973497,-4.4687,-5.4707,0.2006,-0.5049,-0.2753,-1.2129
1781765973517,-6.1499,-5.4153,-0.8618,0.0382,0.1716,-0.6559
1781765973536,-2.935,-2.0183,-3.6238,0.3013,0.5941,0.2705
1781765973557,2.921,-2.009,-4.6772,0.0916,0.3434,0.6034
1781765973577,5.6848,-3.3244,-3.8462,-0.2561,0.4437,0.5375
1781765973596,5.967,-3.6341,-2.9652,-0.6552,0.2326,0.3256
1781765973617,4.775,-2.8889,-1.5919,-0.9256,-0.1251,-0.0213
1781765973637,4.775,-2.8889,-1.5919,-0.8974,-0.3184,-0.305
1781765973657,0.3238,0.1819,0.8705,-0.6024,-0.1077,-0.4567
1781765973677,-0.958,1.2669,1.6827,-0.1376,0.3494,-0.5233
1781765973696,-1.7811,2.049,1.019,0.2085,0.6584,-0.4787
1781765973717,-2.2522,1.8733,0.001,0.2542,0.468,-0.3011
1781765973737,-1.9131,1.8886,-0.5968,0.0244,0.0574,-0.0257
1781765973756,-0.5936,1.71,-0.6584,-0.1256,-0.182,0.132
1781765973776,0.2163,1.8562,-0.3968,-0.1793,-0.2346,0.1503
1781765973797,0.2608,1.6517,0.0752,-0.2114,-0.12,0.0967
1781765973816,-0.99,1.1069,1.155,-0.1752,0.0526,0.077
1781765973837,-2.2825,1.1132,1.8673,-0.1039,0.2502,0.155
1781765973856,-2.2825,1.1132,1.8673,0.008,0.2828,0.3012
1781765973877,-3.7318,0.7421,2.6472,0.173,0.0735,0.4711
1781765973897,-3.9267,0.6453,2.4389,0.318,-0.1016,0.6655
1781765973916,-3.9267,0.6453,2.4389,0.4818,-0.2944,0.8555
1781765973937,-3.0036,0.4287,2.2408,0.7233,-0.4369,0.9449
1781765973955,-2.5593,-0.4157,2.1832,0.8387,-0.369,0.8947
1781765973976,-1.4756,-0.7262,1.6532,0.9757,-0.2154,0.8889
1781765973996,-1.3066,-0.9542,1.2341,1.0699,-0.1911,0.9247
1781765974016,-1.6277,-1.3707,0.5533,1.1578,-0.0328,0.9759
1781765974036,-1.818,-1.0343,1.0738,1.1578,-0.0328,0.9759
1781765974056,-1.3111,-0.4558,2.3377,1.4547,0.6685,0.9456
1781765974077,-1.2502,-0.5613,3.051,1.4354,0.7815,0.9694
1781765974096,-1.053,-2.7878,1.6738,1.2759,0.5261,0.8194
1781765974116,0.1903,-6.0172,-1.4112,1.1245,0.4809,0.5553
1781765974137,2.5897,-3.3831,-2.0671,0.8391,0.5228,0.5193
1781765974156,3.5819,0.0091,-2.2842,0.5392,0.4245,0.5066
1781765974176,3.9804,2.248,-1.9963,0.3154,0.4959,0.4468
1781765974197,4.2143,2.3687,-2.4217,-0.0085,0.2216,0.6725
1781765974216,3.0439,-5.0367,-4.1315,-0.2023,-1.0628,0.9814
1781765974237,1.5429,-5.7161,-2.2726,-0.418,-1.3673,0.8437
1781765974257,2.3706,1.0628,0.0212,-0.3368,-1.5614,0.4423
1781765974276,5.5875,3.325,2.5958,0.053,-1.6362,-0.2897
1781765974297,6.9621,1.9199,3.1975,0.0065,-1.1064,-0.7798
1781765974317,6.3971,-0.0672,1.2138,-0.2059,0.2196,-1.2158
1781765974337,4.0479,-0.9591,-0.7056,-0.2059,0.2196,-1.2158
1781765974356,0.91,-1.935,-2.9485,-0.4291,0.5554,-1.1596
1781765974377,-1.7581,-1.7538,-4.0423,-0.8522,-0.2622,-0.9264
1781765974396,-3.3542,-0.2539,-3.3231,-1.1387,-0.3156,-0.7102
1781765974417,-3.3412,0.1754,-1.4508,-1.2519,0.0946,-0.5361
1781765974437,-2.0638,0.3075,0.2247,-1.2519,0.0946,-0.5361
1781765974457,-1.0669,1.14,1.2226,-1.1352,0.6872,-0.4702
1781765974476,-0.497,1.7909,1.9625,-1.0428,0.3251,-0.465
1781765974497,0.3835,1.0848,3.2221,-0.8167,-0.1993,-0.458
1781765974516,1.4203,-0.3218,3.9606,-0.8167,-0.1993,-0.458
1781765974537,2.6117,0.2774,2.9665,-0.3714,-0.1061,-0.5439
1781765974556,2.7348,0.6263,1.0987,-0.2289,0.7239,-0.5723
1781765974577,1.4242,0.2491,0.5304,-0.5395,0.9491,-0.6768
1781765974596,-0.344,-0.6069,0.7962,-0.2957,0.0409,-0.9094
1781765974616,-0.5315,0.2112,1.5885,-0.3061,-1.2024,-0.6182
1781765974637,-0.6099,1.2691,3.5866,-0.4688,-1.2345,-0.6997
1781765974656,-1.5173,0.399,5.3009,0.0532,-1.1235,-0.7466
1781765974677,-1.4208,0.2107,5.0173,0.5189,-0.7359,-0.5862
1781765974696,-2.5566,0.3414,3.0161,0.1964,0.046,-0.5011
1781765974716,-3.9527,-0.9591,1.6886,-0.5265,1.3188,-0.2354
1781765974738,-5.0356,-1.6347,-2.467,0.0546,0.6802,0.295
1781765974755,-3.4095,-2.0197,-3.8392,0.1555,-0.4253,0.5991
1781765974777,0.4754,-2.7654,-4.6452,0.0445,-0.1032,0.7525
1781765974797,2.1219,-3.4465,-3.4651,-0.1352,0.026,0.6875
1781765974816,2.8923,-3.2057,-1.7963,-0.3165,0.091,0.5556
1781765974837,3.4913,-1.1135,-1.3475,-0.5363,0.4297,0.2335
1781765974856,2.5305,-0.4812,-1.2149,-0.785,1.1131,-0.0797
1781765974877,1.8375,1.8364,-0.96,-0.7827,1.2254,-0.2337
1781765974897,0.4943,2.6483,-0.5291,-0.7057,0.8304,-0.2675
1781765974917,-0.0003,1.6524,-0.2982,-0.5268,0.3083,-0.1775
1781765974938,0.5307,1.3952,0.3845,-0.527,0.0143,0.1911
1781765974956,1.7693,0.8183,1.2325,-0.4301,0.0992,0.4659
1781765974977,0.996,2.3318,1.2751,-0.2325,0.1605,0.1506
1781765974997,-0.1161,2.7193,1.3594,-0.1764,0.2305,0.1792
1781765975017,-1.0755,1.6893,1.3092,-0.0386,0.3038,0.1705
1781765975038,-1.8088,0.7535,1.4113,0.267,0.1495,0.3972
1781765975056,-1.5211,1.1773,1.0989,0.494,-0.0791,0.9115
1781765975076,-0.7069,-0.3263,1.321,0.7136,-0.6034,1.5126
1781765975097,-1.3701,-4.1035,0.9457,1.1749,-1.2327,1.6059
1781765975117,-2.6652,-1.5242,0.7033,1.2414,-1.0599,0.7151
1781765975138,-2.8594,-0.7914,0.6534,0.923,-0.6003,0.0113
1781765975156,-2.4447,-3.179,0.9838,0.6133,-0.0861,-0.3743
1781765975177,-1.7941,-2.9246,1.3366,0.6744,0.4073,0.2156
1781765975197,-1.0223,-4.5396,0.8107,1.2128,1.0563,0.7959
1781765975216,-1.0495,-2.2273,-0.4228,1.2871,1.3335,0.8054
1781765975239,-0.7226,-0.75,-1.0049,0.8175,1.0994,0.3453
1781765975256,0.1514,-3.1522,0.2465,0.3264,0.1377,0.0378
1781765975277,2.4579,-4.9461,2.1977,0.2079,-0.2651,-0.2432
1781765975297,-0.0503,-8.9747,3.4426,0.3443,-0.3171,0.2432
1781765975316,-0.3017,-5.8382,4.3522,1.957,0.4854,0.7499
1781765975337,0.9448,-4.083,-2.4424,2.1082,0.6344,1.3294
1781765975355,1.2559,-1.3422,-4.3474,1.254,0.8915,1.3644
1781765975377,1.2207,-1.3199,0.9742,1.0717,1.03,1.5923
1781765975396,2.1751,-0.5776,1.2093,1.5065,-0.1008,1.4966
1781765975417,2.1578,0.4719,-3.5082,0.6215,0.2272,0.8125
1781765975438,1.7103,-4.8226,3.3388,0.916,1.3413,0.9251
1781765975456,3.1755,-1.2287,-5.4371,1.3338,-0.0131,1.3856
1781765975477,6.086,-0.9404,3.1195,1.3257,0.5186,0.8405
1781765975497,7.5622,0.2136,3.2331,1.5687,2.5564,-0.1691
1781765975516,7.1975,-0.7677,3.9599,2.4587,2.8388,-1.0786
1781765975537,6.4146,-0.6576,-0.1139,2.4703,0.1847,-1.8597
1781765975556,5.9986,-1.427,2.775,2.2902,0.0218,-2.7105
1781765975576,4.7943,-1.6291,2.4589,2.1231,1.1009,-3.414
1781765975597,3.3588,-0.3857,2.5999,2.2168,1.2662,-3.8663
1781765975617,1.5403,0.6937,2.5723,2.5734,0.9651,-4.3215
1781765975638,-0.4298,-0.23,1.462,2.8609,1.0438,-4.4114
1781765975657,-1.6441,-1.0857,0.2582,3.0838,1.5346,-4.2856
1781765975677,-2.5268,-0.8296,-1.2581,3.2455,1.6588,-3.901
1781765975696,-2.9037,-0.4438,-2.089,3.2005,1.0574,-3.6399
1781765975717,-3.1001,-0.0322,-2.5996,2.999,0.4026,-3.4428
1781765975736,-3.0352,-0.5631,-3.0047,2.7235,0.3374,-3.2499
1781765975756,-2.86,-0.8143,-3.4609,2.4537,0.7151,-3.0344
1781765975777,-2.9938,-0.6215,-3.5684,2.2551,1.0349,-2.9735
1781765975796,-3.1769,-0.6111,-3.942,2.0755,1.0383,-2.6059
1781765975816,-3.0849,-0.7311,-4.1142,1.8188,0.8788,-2.2746
1781765975837,-2.8725,-0.096,-4.2015,1.4311,0.6802,-1.9586
1781765975856,-2.3699,-0.1869,-4.1604,0.8679,0.3467,-1.7282
1781765975876,-2.0229,0.2412,-3.5569,0.3479,0.3157,-1.5947
1781765975896,-1.8885,0.2744,-3.0904,0.0525,0.4565,-1.3511
1781765975917,-0.6802,-0.4469,4.1443,0.5949,-0.1732,-1.2768
1781765975936,-0.4044,-0.9505,1.8546,1.2869,0.0691,-1.1949
1781765975956,-0.602,-1.1687,0.0576,1.2479,-0.1974,-0.9624
1781765975976,-0.2307,0.3762,-1.3631,0.9469,0.1029,-0.9797
1781765975996,-0.9113,0.1363,-1.7217,0.6693,0.378,-0.9729
1781765976017,-1.1001,-0.0276,-0.9507,0.2661,0.1409,-0.887
1781765976036,0.0414,-0.26,0.0986,0.0585,0.1437,-0.8977
1781765976056,0.6817,-0.0078,0.2779,0.0801,0.1547,-1.1215
1781765976077,0.4475,-0.1269,-0.3491,0.1346,-0.0887,-1.1932
1781765976096,0.2495,-0.1721,-0.2979,0.2993,-0.4671,-1.0358
1781765976117,0.0473,-0.4715,0.2857,0.5587,-0.6736,-0.7665
1781765976137,0.0236,-1.0225,0.599,0.6775,-0.2483,-0.6253
1781765976156,0.3762,-1.2714,0.2447,0.5888,0.2797,-0.6552
1781765976176,0.5586,-1.1021,-0.1145,0.3801,0.4695,-0.6671
1781765976197,0.6587,-1.1553,-0.6311,0.233,0.4389,-0.6703
1781765976216,0.5111,-0.8477,-1.0218,0.1305,0.2846,-0.6424
1781765976236,0.4086,-0.7289,-0.6399,0.1135,0.2533,-0.5193
1781765976257,0.3305,-0.6572,-0.528,0.1715,0.0727,-0.3691
1781765976277,0.2469,-1.0786,-0.344,0.2324,-0.1135,-0.2334
1781765976296,0.2469,-1.0786,-0.344,0.2463,-0.1738,-0.1814
1781765976317,0.5888,-1.2289,-0.926,0.1656,-0.0381,-0.1949
1781765976336,0.5888,-1.2289,-0.926,0.0444,0.0927,-0.2242
1781765976357,0.7457,-1.1641,-0.8915,0.0444,0.0927,-0.2242
1781765976377,0.5528,-1.0959,-0.7235,0.0996,0.2,-0.072
1781765976396,0.4714,-0.8522,-0.8125,0.1924,0.0326,0.0246
1781765976417,0.5035,-0.6485,-1.1985,0.2423,-0.0405,0.0601
1781765976436,0.447,-0.6771,-1.6014,0.2203,-0.0141,0.0359
1781765976457,0.4138,-0.6256,-1.6067,0.2203,-0.0141,0.0359
1781765976476,0.2678,-0.7277,-1.4024,-0.0517,0.1578,0.0053
1781765976497,0.2977,-0.789,-1.1325,-0.1623,0.1613,0.0671
1781765976516,0.4465,-0.7316,-0.9458,-0.2353,0.1297,0.1876
1781765976537,0.3613,-0.3572,-0.9291,-0.3991,0.2679,0.2521
1781765976556,0.2229,-0.3155,-0.7677,-0.6024,0.3256,0.2726
1781765976577,0.1552,-0.6079,-0.4375,-0.758,0.2783,0.2166
1781765976596,0.1763,-0.738,-0.0552,-0.8235,0.2513,0.182
1781765976616,-0.0649,-0.4795,0.45,-0.8284,0.091,0.2091
1781765976637,-0.0531,-0.3756,0.5903,-0.8128,0.0022,0.2375
1781765976656,0.2941,-0.176,0.6904,-0.8128,0.0022,0.2375
1781765976677,0.2216,-0.0354,0.6559,-0.822,0.2069,0.3265
1781765976695,0.3043,0.0676,0.5032,-0.7897,0.3225,0.3322
1781765976717,0.1354,0.1095,0.6356,-0.6982,0.393,0.2858
1781765976736,-0.0959,-0.1815,0.662,-0.5486,0.3112,0.1856
1781765976757,-0.2758,-0.2499,0.8203,-0.5486,0.3112,0.1856
1781765976777,-0.1974,-0.1142,0.8745,-0.5522,0.3556,-0.1299
1781765976796,-0.3628,0.0849,0.4706,-0.5978,0.2797,-0.3887
1781765976817,-0.5113,0.2886,0.2576,-0.514,0.0711,-0.579
1781765976836,-0.5476,0.5804,0.1246,-0.3407,0.0325,-0.6589
1781765976858,-0.3715,0.521,0.1842,-0.3407,0.0325,-0.6589
1781765976877,-0.2238,0.3988,0.1366,0.0155,0.1632,-0.5914
1781765976896,-0.2235,0.2442,0.4572,0.2147,-0.0353,-0.5327
1781765976917,-0.3263,0.356,0.2615,0.3346,-0.0545,-0.5276
1781765976936,-0.4383,0.4288,-0.0775,0.3346,-0.0545,-0.5276
1781765976957,-0.4986,0.4302,-0.0524,0.3558,0.2377,-0.583
1781765976977,-0.4752,0.1478,0.2193,0.5682,0.1582,-0.5768
1781765976996,-0.1343,-0.1826,0.3225,0.5682,0.1582,-0.5768
1781765977017,-0.1232,-0.7777,0.5453,0.7655,0.1424,-0.5767
1781765977036,-0.3151,-1.44,0.4395,0.9448,-0.1857,-0.7561
1781765977056,-0.9787,-1.5657,0.5607,1.1864,-0.4893,-1.031
1781765977077,-1.2314,-1.0188,0.3761,1.2411,-0.1604,-1.2973
1781765977097,-1.0095,-0.4771,0.0372,1.3655,-0.003,-1.5309
1781765977116,-1.235,-0.0561,-0.2687,1.1168,0.1838,-1.7762
1781765977137,-0.6238,-0.3752,-0.4157,0.8973,-0.257,-1.8058
1781765977157,-1.4285,0.4338,0.4484,0.6835,-0.8573,-1.7906
1781765977177,-1.3253,0.8538,0.6457,0.4196,-0.9957,-1.7719
1781765977197,-0.9529,0.714,-0.3263,-0.0864,-0.5959,-1.5654
1781765977217,-0.7584,2.0825,0.3887,-0.413,0.2478,-1.1844
1781765977236,-0.4498,2.0756,-0.6834,-0.6626,0.7073,-0.7855
1781765977258,-0.7007,2.0586,-0.5671,-0.8278,0.8719,-0.2536
1781765977276,-0.4803,2.3773,-0.1818,-0.8801,0.6923,0.1768
1781765977297,0.2139,0.7212,-0.3662,-0.8798,0.3918,0.2745
1781765977317,1.5321,0.3024,-0.1903,-0.8714,0.1,0.1203
1781765977336,2.7339,0.9554,0.6356,-0.5889,-0.326,-0.2554
1781765977357,2.2066,0.2311,0.5964,-0.1438,-0.7807,-0.6892
1781765977377,0.9931,0.0454,0.2647,0.1526,-1.071,-0.7454
1781765977396,0.4732,0.0807,-0.0961,0.2521,-1.1378,-0.479
1781765977416,0.6325,0.1388,-0.3141,0.1974,-0.9208,-0.2036
1781765977437,0.7288,0.5454,-0.3739,0.1693,-0.7258,-0.0236
1781765977457,0.9473,0.7389,-0.6659,0.2275,-0.664,0.0038
1781765977477,1.0396,0.8045,-0.7803,0.2523,-0.7426,-0.092
1781765977496,0.9284,0.4458,-0.7416,0.1469,-0.8579,-0.2298
1781765977516,0.5647,0.2923,-0.0733,-0.0257,-0.9289,-0.3184
1781765977536,0.1084,0.1746,0.8988,-0.0341,-0.928,-0.3162
1781765977557,0.2169,-0.1977,1.376,0.0963,-0.8763,-0.2738
1781765977577,0.3414,-0.3058,1.2502,0.2321,-0.684,-0.2792
1781765977596,0.5518,-0.0618,0.909,0.2378,-0.446,-0.327
1781765977617,0.5123,-0.1427,0.5433,0.1363,-0.2452,-0.4028
1781765977636,0.2156,-0.1774,0.464,0.0604,-0.1254,-0.4538
1781765977657,0.1693,-0.3207,0.5933,0.091,-0.1237,-0.4567
1781765977676,0.2232,-0.6435,0.541,0.172,-0.1042,-0.4639
1781765977697,0.0008,-0.7381,0.2824,0.2569,-0.061,-0.4157
1781765977717,-0.0409,-0.8424,-0.1749,0.2968,0.0062,-0.3247
1781765977737,0.0442,-0.9159,-0.6525,0.3125,0.1022,-0.2521
1781765977758,0.0107,-0.8124,-1.2027,0.2966,0.1561,-0.2176
1781765977777,-0.056,-0.6699,-1.7422,0.1731,0.1271,-0.2062
1781765977797,0.11,-0.5154,-1.8417,-0.0379,0.0793,-0.2607
1781765977816,-0.2203,-0.5607,-1.6295,-0.2896,0.0475,-0.3609
1781765977837,-0.5724,-0.6205,-0.8642,-0.405,0.0491,-0.4017
1781765977858,-0.841,-0.7611,-0.5442,-0.315,0.1425,-0.3517
1781765977877,-1.0048,-0.5677,-1.1648,-0.2418,0.2447,-0.2396
1781765977896,-0.7484,-0.4729,-1.7946,-0.4193,0.2687,-0.1526
1781765977917,-0.4582,-0.3395,-1.7739,-0.6624,0.2016,-0.1761
1781765977937,-0.325,-0.3645,-1.5187,-0.8767,0.0061,-0.2967
1781765977957,-0.4041,-0.5219,-1.0471,-1.0191,-0.2561,-0.446
1781765977976,-0.6805,-0.7976,-0.5622,-1.0708,-0.539,-0.491
1781765977997,-0.7238,-1.0126,-0.0415,-1.1213,-0.7366,-0.4082
1781765978017,-0.6499,-0.9979,0.7873,-1.0391,-0.7874,-0.2446
1781765978037,-0.4278,-0.7947,0.9689,-0.7811,-0.8884,-0.1175
1781765978059,-0.4871,-0.7108,0.7836,-0.5411,-1.052,-0.0335
1781765978077,-0.3818,-0.4359,0.4242,-0.2815,-1.1753,0.0186
1781765978096,-0.3618,-0.2355,-0.1885,-0.2229,-1.0742,0.0042
1781765978117,-0.111,-0.095,-0.5069,-0.4281,-0.6392,-0.0881
1781765978137,-0.4171,-0.3891,-0.6517,-0.762,-0.0719,-0.167
1781765978159,-0.8477,-0.4711,-0.5062,-0.9355,0.2574,-0.1303
1781765978177,-0.7528,-0.7145,-0.4465,-0.8778,0.2317,-0.0442
1781765978196,-0.3107,-0.4252,-0.4111,-0.7957,-0.0795,-0.0171
1781765978216,-0.0126,-0.4066,-0.0337,-0.8315,-0.4272,-0.0799
1781765978236,0.1591,-0.4749,0.8597,-0.783,-0.7494,-0.1799
1781765978258,0.1094,-0.75,1.9314,-0.6398,-0.955,-0.2523
1781765978277,-0.1664,-0.9572,2.4576,-0.5121,-0.9609,-0.2474
1781765978296,-0.2466,-0.7183,2.6877,-0.5149,-0.7926,-0.1967
1781765978317,-0.2169,-0.5632,2.8591,-0.5694,-0.4998,-0.1887
1781765978337,-0.193,-0.4099,3.0558,-0.5595,-0.2441,-0.1873
1781765978358,0.1581,-0.3616,3.2984,-0.4279,-0.0918,-0.2087
1781765978377,0.5443,-0.662,2.8524,-0.244,0.0529,-0.3301
1781765978396,0.378,-0.8201,1.9764,-0.2982,0.1482,-0.4098
1781765978416,0.0425,-0.7874,1.7481,-0.5705,0.1878,-0.4087
1781765978437,-0.2937,-0.4871,2.7919,-0.713,0.1223,-0.3417
1781765978459,-0.2937,-0.4871,2.7919,-0.4775,0.1292,-0.2268
1781765978477,-0.0917,0.1114,3.5254,-0.0386,0.2944,-0.1714
1781765978496,0.0278,0.2225,2.1468,0.2341,0.5386,-0.1556
1781765978516,0.0459,0.5389,0.8357,0.2177,0.7581,-0.1684
1781765978537,-0.3358,0.8532,0.1539,-0.0078,0.8497,-0.1792
1781765978557,-0.388,0.9603,0.3833,-0.1993,0.7996,-0.1163
1781765978576,-0.4568,0.7795,0.8325,-0.2463,0.5852,-0.0534
1781765978596,-0.4063,0.7967,1.7334,-0.0843,0.2969,0.0612
1781765978616,-0.2812,0.624,1.9152,0.249,0.1369,0.2095
1781765978637,-0.0543,0.7223,1.2807,0.5648,0.1278,0.3355
1781765978657,0.181,0.83,0.2352,0.7071,0.2122,0.3867
1781765978676,0.2362,0.9681,-0.4602,0.6704,0.3016,0.3651
1781765978697,0.114,1.0667,-0.7341,0.5366,0.303,0.3407
1781765978717,0.1584,1.0853,-0.4107,0.4667,0.2046,0.2932
1781765978736,0.1584,1.0853,-0.4107,0.537,0.0904,0.242
1781765978757,0.1977,0.4868,-0.2129,0.6744,0.0967,0.1883
1781765978777,0.105,0.3035,-0.8728,0.6691,0.1582,0.1549
1781765978796,0.105,0.3035,-0.8728,0.516,0.2958,0.1478
1781765978817,0.0221,0.1139,-1.3131,0.3373,0.3622,0.154
1781765978837,-0.0214,0.1449,-1.2515,0.2942,0.3509,0.1448
1781765978856,-0.0047,0.0075,-1.0353,0.2943,0.2752,0.1625
1781765978877,-0.0415,-0.0391,-1.1112,0.2925,0.1939,0.1818
1781765978896,0.022,-0.2167,-1.075,0.2808,0.1115,0.2387
1781765978916,-0.0906,-0.2949,-1.1702,0.2293,0.0225,0.301
1781765978937,-0.0552,-0.3266,-1.1744,0.2085,-0.0735,0.3604
1781765978956,0.0395,-0.3407,-0.962,0.2281,-0.1577,0.3841
1781765978977,0.2271,-0.3767,-0.7291,0.2643,-0.1285,0.3458
1781765978997,0.411,-0.54,-0.6924,0.1846,0.0026,0.3125
1781765979016,0.264,-0.7127,-1.0749,-0.0142,0.0634,0.2798
1781765979037,0.1069,-0.6489,-1.2282,-0.1927,0.048,0.2458
1781765979057,-0.1201,-0.6147,-0.9061,-0.2626,-0.0608,0.2499
1781765979076,-0.2679,-0.505,-0.0597,-0.165,-0.1351,0.2903
1781765979096,-0.3652,-0.6763,0.6438,-0.0052,-0.1537,0.3662
1781765979117,-0.2692,-0.8129,0.7818,0.067,-0.0937,0.4412
1781765979136,0.0308,-0.7238,0.3267,-0.0158,-0.1254,0.4211
1781765979157,0.3877,-0.5871,-0.1307,-0.1688,-0.2578,0.3151
1781765979177,0.4607,-0.5154,0.0534,-0.1688,-0.2578,0.3151
1781765979196,0.3701,-0.5497,0.9139,-0.3458,-0.2325,0.068
1781765979217,-0.0925,-0.8433,1.6604,-0.4096,-0.0441,0.1234
1781765979237,-0.5815,-0.8311,1.8222,-0.4183,0.0712,0.2426
1781765979256,-0.5856,-0.4898,1.8835,-0.3333,-0.011,0.2846
1781765979277,-0.3923,0.125,1.9211,-0.1324,-0.1768,0.2285
1781765979296,-0.2362,0.5046,2.0277,-0.1324,-0.1768,0.2285
1781765979316,-0.1156,0.5929,1.9402,0.1968,-0.0018,0.0167
1781765979337,-0.3054,0.5832,1.1813,0.1319,0.2748,-0.0421
1781765979357,-0.505,0.5051,0.404,0.032,0.4448,-0.0267
1781765979377,-0.7405,0.4866,-0.0259,0.032,0.4448,-0.0267
1781765979397,-0.7536,0.6533,0.0851,0.1973,0.1223,0.0282
1781765979416,-0.5593,0.815,0.4771,0.1973,0.1223,0.0282
1781765979437,-0.403,0.846,0.3451,0.3809,-0.0625,-0.0175
1781765979456,-0.3122,0.8164,-0.0776,0.3587,-0.0995,-0.08
1781765979477,-0.2808,0.7056,-0.1085,0.1896,-0.0142,-0.149
1781765979496,-0.4108,0.5894,0.2296,0.0778,0.0191,-0.206
1781765979517,-0.5012,0.3429,0.633,0.1052,-0.0839,-0.2359
1781765979537,-0.4615,0.0943,1.0415,0.2424,-0.2814,-0.2411
1781765979556,-0.4196,-0.1066,1.2113,0.4314,-0.4053,-0.2524
1781765979577,-0.38,-0.3872,1.0119,0.5463,-0.4307,-0.2696
1781765979596,-0.1484,-0.6876,0.6216,0.5683,-0.275,-0.33
1781765979616,-0.1028,-1.0803,-0.267,0.3829,-0.0341,-0.4262
1781765979636,-0.4207,-1.2831,-0.5665,0.0611,0.1189,-0.4728
1781765979656,-0.692,-1.3758,-0.1111,-0.125,0.0744,-0.466
1781765979676,-0.6743,-1.364,0.6011,-0.072,-0.047,-0.3781
1781765979697,-0.2831,-1.4009,0.5299,0.0954,-0.0674,-0.273
1781765979717,-0.0472,-1.2011,-0.5338,0.0359,0.0782,-0.2192
1781765979736,0.0003,-0.7698,-1.222,-0.2962,0.2674,-0.1937
1781765979757,-0.2062,-0.2857,-0.8796,-0.6354,0.3185,-0.199
1781765979777,-0.5353,-0.1162,0.2448,-0.7153,0.1885,-0.1417
1781765979796,-0.8037,-0.03,1.1412,-0.5035,0.1218,0.0203
1781765979816,-0.8664,-0.0071,1.0489,-0.1732,0.1789,0.3026
1781765979837,-0.4527,0.3844,-0.3098,0.1195,0.4043,0.5782
1781765979856,0.1663,0.7824,-2.0931,0.1536,0.5537,0.7186
1781765979877,0.7306,0.9635,-3.0181,0.0066,0.6324,0.7317
1781765979896,0.96,1.101,-3.1217,-0.1304,0.5297,0.6523
1781765979916,1.1142,1.2629,-2.7684,-0.186,0.3017,0.4917
1781765979937,0.9271,1.101,-2.3879,-0.2478,0.004,0.2952
1781765979956,0.8547,0.6558,-1.58,-0.2572,-0.1908,0.1601
1781765979976,0.8774,0.3439,-1.3641,-0.2967,-0.2747,0.1174
1781765979997,0.9895,0.284,-1.03,-0.4307,-0.3998,0.0408
1781765980016,0.883,0.2026,0.0713,-0.5252,-0.463,-0.0612
1781765980037,0.5539,0.0446,0.9204,-0.5083,-0.4343,-0.1233
1781765980057,0.2575,-0.0876,1.3157,-0.4395,-0.2978,-0.137
1781765980076,0.0059,-0.2224,1.4198,-0.3923,-0.0961,-0.0851
1781765980097,-0.1259,-0.161,1.3406,-0.3281,0.0924,0.0051
1781765980117,-0.0789,-0.0866,1.3153,-0.2298,0.1309,0.1233
1781765980137,-0.0706,0.0827,1.3943,-0.0593,0.0152,0.2327
1781765980157,0.0905,0.0885,1.2838,0.1775,-0.0775,0.312
1781765980177,0.3754,0.0341,0.7409,0.3342,-0.0664,0.3414
1781765980197,0.7038,-0.1922,-0.0296,0.3097,0.0466,0.2778
1781765980217,0.7205,-0.6449,-0.5812,0.0909,0.1207,0.2055
1781765980236,0.554,-0.9145,-0.4244,-0.178,0.0393,0.1688
1781765980256,0.2231,-0.8815,0.4864,-0.3056,-0.17,0.1655
1781765980277,-0.1348,-0.7779,1.4838,-0.2113,-0.3438,0.2241
1781765980297,-0.2928,-0.5492,1.8912,0.0356,-0.3543,0.3547
1781765980317,0.1201,-0.4153,1.0871,0.3256,-0.2043,0.4213
1781765980336,0.7309,-0.573,-0.729,0.3459,-0.0297,0.3265
1781765980357,0.8053,-0.7802,-2.3263,0.0055,0.125,0.1252
1781765980377,0.3356,-0.9834,-2.6988,-0.5272,0.1356,-0.0805
1781765980397,-0.3968,-1.0285,-1.8332,-0.9422,-0.0181,-0.1821
1781765980416,-0.959,-1.0175,-0.3921,-1.0642,-0.3219,-0.1437
1781765980437,-1.1171,-0.8014,0.7536,-0.8577,-0.6129,-0.0087
1781765980457,-0.9826,-0.4713,0.6757,-0.5269,-0.7006,0.1422
1781765980477,-0.759,-0.2099,-0.5221,-0.3157,-0.5362,0.2768
1781765980497,-0.4801,0.1205,-2.0743,-0.3358,-0.3767,0.2927
1781765980516,-0.4074,0.2864,-3.1013,-0.5838,-0.3635,0.2263
1781765980537,-0.4963,0.3846,-2.7028,-0.8353,-0.6048,0.1305
1781765980556,-0.6454,0.1984,-1.608,-0.8575,-0.9581,0.0618
1781765980577,-0.7462,-0.251,-0.8329,-0.7449,-1.239,0.078
1781765980597,-0.6193,-0.6107,-0.53,-0.6433,-1.3661,0.1743
1781765980616,-0.3197,-0.7187,-0.4728,-0.6408,-1.3696,0.2641
1781765980637,-0.0126,-0.6241,-0.449,-0.7676,-1.3047,0.2754
1781765980657,0.1877,-0.5534,0.0474,-0.952,-1.265,0.1967
1781765980678,0.1704,-0.5175,0.9598,-1.0534,-1.2212,0.085
1781765980697,0.0872,-0.6072,2.0255,-0.9943,-1.1097,-0.0325
1781765980716,-0.2212,-0.6956,2.2394,-0.9576,-0.8265,-0.1052
1781765980737,-0.4489,-0.7045,2.3507,-1.0058,-0.4752,-0.1108
1781765980757,-0.6945,-0.5998,2.504,-0.965,-0.2051,-0.0785
1781765980779,-0.6945,-0.5998,2.504,-0.7981,-0.1524,-0.0252
1781765980796,-0.666,-0.3987,2.2684,-0.5686,-0.233,0.002
1781765980817,-0.3402,-0.7716,1.9233,-0.4248,-0.3828,0.0013
1781765980837,-0.0864,-1.403,1.7254,-0.3907,-0.4795,-0.0138
1781765980857,-0.412,-1.6924,1.8136,-0.4381,-0.5089,0.0421
1781765980877,-0.412,-1.6924,1.8136,-0.4328,-0.4739,0.1944
1781765980896,-1.0739,-0.5711,2.7056,-0.2836,-0.4034,0.3444
1781765980915,-0.9719,-0.0597,2.4526,-0.0573,-0.2472,0.4465
1781765980937,-0.5302,-0.131,1.3705,0.0478,-0.0642,0.451
1781765980957,-0.5548,-0.7452,0.2968,-0.0607,0.0576,0.4248
1781765980977,-0.5548,-0.7452,0.2968,-0.3173,0.0114,0.4583
1781765980996,-0.3872,-1.7355,-0.1774,-0.5277,-0.2075,0.5817
1781765981016,-0.5209,-1.6938,0.5818,-0.5765,-0.5747,0.978
1781765981036,0.0412,-0.7572,1.6741,-0.2985,-1.0412,1.4692
1781765981057,0.8089,0.6306,2.1179,0.2178,-1.3747,1.7438
1781765981079,0.8089,0.6306,2.1179,0.6158,-1.3219,1.7682
1781765981097,1.2976,2.4976,-0.1989,0.6186,-1.0317,1.6617
1781765981116,1.2976,2.4976,-0.1989,0.3033,-0.7547,1.4649
1781765981136,0.9436,2.7459,-1.0939,0.0105,-0.6904,1.3745
1781765981156,0.7974,2.3744,-1.0129,-0.0526,-0.9363,1.3288
1781765981178,1.0348,1.9804,-0.2744,0.2028,-1.395,1.3026
1781765981197,1.2396,1.5382,0.7183,0.6239,-2.0105,1.2906
1781765981217,1.5984,0.1794,1.7372,1.0744,-2.484,1.2231
1781765981236,2.0586,-0.9872,2.312,1.3557,-2.9227,1.1814
1781765981256,1.4268,-2.7356,2.9127,1.649,-3.229,1.4426
1781765981278,0.8676,-4.2096,3.7157,1.8508,-3.5651,1.8944
1781765981296,-0.1933,-5.1558,-3.8708,0.4359,-3.6741,2.5473
1781765981317,1.0567,-4.713,-2.0541,0.1362,-4.0079,2.4514
1781765981337,3.2833,-4.4434,-1.3292,0.797,-3.6744,1.7097
1781765981356,4.4656,-3.3784,2.6882,2.7116,-3.4099,0.6545
1781765981377,2.6431,-0.3024,2.6243,2.4502,-2.7537,0.0739
1781765981397,1.2103,-0.0958,-2.6484,1.496,-1.3937,-0.3388
1781765981417,0.5325,-0.6797,-2.8743,1.1835,-0.9665,-0.5043
1781765981436,0.9761,-1.3092,2.5626,1.8991,-0.6781,-0.5457
1781765981457,1.0882,-1.6479,2.8652,1.6422,-0.6876,-0.4305
1781765981478,-0.3689,-1.1212,-1.9905,1.263,-0.4288,-0.3384
1781765981496,-0.0324,-1.0726,-1.1339,0.9016,-0.844,-0.2104
1781765981516,-1.8528,0.3427,-3.0284,0.8433,-0.9261,-0.1543
1781765981536,-0.9265,-0.222,-0.5819,0.7837,-1.2924,0.042
1781765981557,-0.4518,0.291,-0.3552,0.4883,-1.3327,0.1967
1781765981577,-0.1896,1.0545,-2.2224,0.299,-0.7304,0.0843
1781765981596,0.7692,1.6312,-0.3036,0.1249,-0.3849,-0.0783
1781765981616,0.4777,2.4134,-0.8649,0.2368,-0.2502,-0.2648
1781765981637,0.2583,2.0664,0.0222,0.6468,0.0222,-0.3701
1781765981656,2.4356,0.5354,3.3255,1.2713,0.4268,-0.3881
1781765981677,2.3138,1.8728,6.4538,0.8246,0.1886,-0.3466
1781765981697,-0.2936,4.2413,-1.5778,-0.2926,0.8623,-0.4371
1781765981716,-0.0525,3.0854,-2.4005,-0.8707,0.8179,-0.3315
1781765981737,-2.403,3.9151,-2.3054,-1.0478,0.1213,-0.2677
1781765981758,-3.2596,3.8207,-1.5422,-0.8248,-0.6336,-0.2168
1781765981779,-4.1786,3.973,-1.898,-0.8248,-0.6336,-0.2168
1781765981797,-2.3165,4.0626,-1.1827,-0.7744,-0.891,-0.4265
1781765981816,-2.5483,5.3642,-2.872,-0.7744,-0.891,-0.4265
1781765981836,-1.8397,4.4483,-2.7178,-1.2281,-1.092,-0.5323
1781765981856,-1.8128,4.3975,-1.8438,-1.3662,-1.2885,-0.5388
1781765981876,1.2341,3.081,0.1025,-1.3572,-2.0511,-0.8006
1781765981896,-2.037,4.7021,1.2263,-1.6197,-3.0652,-0.6976
1781765981916,0.8324,0.0712,2.406,-1.0983,-2.4691,-0.5879
1781765981936,3.5574,-1.8005,0.3502,-1.6102,-0.5446,-0.6625
1781765981957,0.5635,-1.2529,-0.9511,-1.1891,1.3177,-0.7389
1781765981977,0.9074,-2.6552,-1.3076,0.0341,0.6492,-0.6789
1781765981996,0.1743,-2.3033,1.123,1.1375,-0.7414,-0.4339
1781765982016,0.5664,-3.5432,5.273,1.3218,-1.6493,-0.2281
1781765982037,2.3523,-4.7299,5.8196,1.0824,-1.0899,0.1863
1781765982057,1.9418,-3.0039,2.7999,0.5346,-0.4255,0.5854
1781765982076,-0.8048,-2.8423,1.1572,0.155,-1.1904,0.7819
1781765982096,-2.5118,-2.4093,1.3047,-0.2819,-1.7959,1.3359
1781765982117,-2.7141,-3.0359,2.8372,-0.5074,-1.7944,2.0091
1781765982136,-2.6299,-2.8737,3.0018,-0.4276,-1.684,2.7677
1781765982157,-4.6273,-3.9865,3.0956,-0.1491,-1.3531,3.5584
1781765982176,-0.8563,0.2462,-0.8928,-0.1641,-0.9614,4.0593
1781765982197,-4.3971,0.8708,-2.204,-0.3435,-0.4128,4.6289
1781765982217,3.726,5.5179,-1.7024,0.3028,0.4358,3.2886
1781765982237,3.5539,3.2272,-3.6714,0.4686,0.4506,2.4273
1781765982256,1.6375,1.8167,-3.9665,0.6156,0.4479,2.145
1781765982277,2.1824,1.2618,-2.1974,0.4969,0.3795,2.246
1781765982296,4.5212,0.3792,-0.575,0.5182,0.5542,1.84
1781765982315,5.655,3.6108,-4.5846,0.3051,0.581,1.6825
1781765982337,3.9576,4.231,-3.6153,-1.0074,0.8636,0.2859
1781765982356,-0.0329,-4.5085,-1.8817,-1.6084,1.482,-0.6348
1781765982376,-4.1262,-6.1387,0.7653,-1.3421,0.1537,-0.1552
1781765982397,0.2031,-3.8107,0.801,-0.0277,-0.4624,0.1135
1781765982416,-2.617,-3.111,0.2103,0.1361,0.0446,0.4252
1781765982437,0.4112,-0.1776,-1.0359,0.0841,0.3785,0.2275
1781765982457,-0.5281,2.2095,0.1153,0.0609,0.2342,-0.2385
1781765982476,0.212,2.0772,1.3169,0.1806,0.564,-0.5785
1781765982497,-0.606,0.4152,1.1865,0.2026,1.2821,-0.991
1781765982517,-0.7301,-1.6682,0.7731,0.2379,2.0949,-1.1118
1781765982536,-3.6178,-2.1313,0.876,0.1312,2.1416,-1.1167
1781765982556,-8.3578,0.6173,2.0641,-0.1453,0.6248,0.1839
1781765982577,-2.8637,0.7313,2.6827,-0.4751,-0.5537,1.1793
1781765982596,-2.0234,0.794,2.7103,-0.6098,-0.7165,1.6308
1781765982617,-1.2369,0.9241,2.6303,0.0374,-0.3921,1.9122
1781765982637,-0.7374,0.5411,2.5005,1.2399,0.1735,1.7513
1781765982656,-0.6919,0.2652,0.9115,1.7864,0.2344,1.778
1781765982676,-1.0415,-0.955,-1.16,1.5409,-0.4574,2.1972
1781765982697,-2.2896,-0.9141,-1.9711,1.024,-0.7546,2.5369
1781765982717,-1.9611,0.0232,-0.6886,0.7631,-0.8882,2.0535
1781765982736,-1.4905,-0.0118,1.1518,0.7494,-0.1406,1.5047
1781765982757,-0.8587,0.5137,2.4558,0.9134,0.8812,1.0689
1781765982777,0.1137,0.971,1.7404,1.0995,1.3458,0.6474
1781765982796,1.4635,0.2473,0.1068,1.0315,0.9053,0.5475
1781765982817,2.7278,-1.1311,-0.3411,0.8552,0.26,0.8187
1781765982836,3.4073,-3.4679,-1.558,0.9158,-0.4046,1.222
1781765982856,4.2367,5.438,-5.6249,0.2718,-0.7444,1.0676
1781765982877,5.3985,-11.5219,-8.0375,-0.9508,-0.8702,1.2404
1781765982897,9.6631,-1.669,3.4071,-1.3866,-0.8506,1.0729
1781765982916,11.5602,-4.6954,3.1889,-1.0843,0.0043,-0.66
1781765982936,7.715,-3.0738,3.9177,-0.5385,0.6728,-1.8369
1781765982957,4.1433,-0.9954,1.4275,0.105,1.223,-2.2338
1781765982976,1.6287,-1.8056,-6.3621,-0.1768,1.0025,-2.29
1781765982997,-2.6848,-0.5006,-3.8984,-0.8917,-0.1004,-1.6223
1781765983016,-3.9877,0.2436,-0.2425,-0.9404,-0.5603,-0.6923
1781765983036,-2.035,1.2189,-0.3349,-0.8659,-0.3917,-0.0078
1781765983057,0.3111,1.3503,0.1677,-0.9497,-0.2621,0.2936
1781765983076,1.246,0.7805,0.7974,-0.8573,-0.2689,0.4801
1781765983097,1.556,0.5517,0.8286,-0.7577,-0.3773,0.5766
1781765983117,1.3581,0.1516,0.7752,-0.7924,-0.5283,0.6959
1781765983137,0.7637,-0.136,1.9624,-0.8662,-0.6734,0.6079
1781765983156,0.1751,0.244,3.0248,-0.774,-0.3981,0.5859
1781765983177,-0.369,0.5247,1.9018,-0.8366,-0.6166,0.6062
1781765983198,-0.369,0.5247,1.9018,-0.8097,-0.8159,0.5955
1781765983217,0.2836,0.5029,2.7023,-0.7858,-0.9983,0.6093
1781765983236,-0.3716,0.5066,1.8912,-0.573,-1.3501,0.4811
1781765983257,-2.1986,-0.2211,1.589,-0.6215,-1.6283,0.0841
1781765983277,-2.6912,2.0429,4.0228,-0.4132,-1.7585,-0.0133
1781765983297,-2.6912,2.0429,4.0228,-0.1842,-1.2151,0.2272
1781765983317,-1.537,0.924,7.2955,0.599,-1.6264,0.377
1781765983337,-1.2016,-2.9334,-2.0251,0.0081,-0.7805,0.2682
1781765983356,-2.6667,-1.9218,-0.3696,-0.7505,0.522,0.2474
1781765983377,0.7724,-1.3202,1.4032,-1.1471,-0.2546,0.5644
1781765983397,0.7724,-1.3202,1.4032,-1.049,-0.1318,-0.3605
1781765983416,-1.6963,-0.8281,0.5001,-0.5793,0.646,-0.5526
1781765983436,-2.0071,-1.0109,-1.725,-0.1428,0.6627,-0.6553
1781765983456,-1.2938,-2.958,-4.4898,0.1083,0.7108,-0.4642
1781765983476,1.1114,-4.2729,-5.421,0.0547,1.0887,-0.1386
1781765983497,1.1114,-4.2729,-5.421,-0.1284,1.1717,-0.0501
1781765983517,2.8972,-3.6775,-3.1716,-0.5933,0.2366,-0.1169
1781765983537,2.3111,-1.6055,-0.5721,-0.6223,0.159,-0.1742
1781765983556,2.3111,-1.6055,-0.5721,-0.4924,0.0088,-0.2088
1781765983577,-0.0825,1.6071,2.2568,-0.2528,0.0954,-0.1459
1781765983598,-0.0825,1.6071,2.2568,0.102,0.2171,-0.1031
1781765983616,-0.8197,3.1173,1.6436,0.3032,0.2995,0.036
1781765983636,-1.4547,3.477,1.4874,0.3422,0.3424,0.2031
1781765983657,-1.1995,3.8971,1.3879,0.2046,0.2423,0.3489
1781765983676,-0.2951,3.9334,1.4251,0.0607,0.0603,0.348
1781765983697,0.5836,2.8105,1.3899,-0.0155,-0.1349,0.3491
1781765983716,0.6738,2.3143,1.5689,-0.0156,0.0402,0.3568
1781765983736,-0.2033,1.4436,2.2206,0.0529,0.0991,0.3731
1781765983757,-1.542,0.7561,2.3009,0.1514,-0.0394,0.4524
1781765983777,-2.6169,0.4499,2.6936,0.3306,-0.3934,0.5215
1781765983797,-3.0207,0.3238,2.9368,0.6164,-0.7123,0.5312
1781765983816,-2.5166,0.5151,3.2132,0.9398,-0.7896,0.4735
1781765983837,-2.3967,0.7912,3.732,1.2203,-0.2225,0.4387
1781765983856,-1.843,0.1603,3.3413,1.258,0.2837,0.4335
1781765983876,-1.4798,-0.6535,1.818,1.2161,0.5411,0.4469
1781765983898,-1.3491,-1.5291,1.2966,1.2161,0.5411,0.4469
1781765983916,-1.1127,-1.6988,1.8716,1.7025,0.558,0.5381
1781765983937,-0.3319,-1.1727,2.5202,1.8259,0.5152,0.4421
1781765983956,0.0742,-1.167,2.7829,1.7181,0.5051,0.394
1781765983976,-1.323,-1.9887,2.0301,1.4803,0.472,0.3388
1781765983997,-1.725,-3.7852,-1.1842,1.4803,0.472,0.3388
1781765984017,0.0574,-5.0973,-2.895,1.0591,0.2477,0.381
1781765984037,2.0745,-4.2723,-2.9308,0.8273,0.2991,0.3927
1781765984056,4.5681,-2.2553,-2.224,0.3916,0.5708,0.2993
1781765984077,5.404,0.0232,-3.2619,-0.0875,0.7013,0.4346
1781765984098,3.672,-1.3293,-4.5057,-0.0875,0.7013,0.4346
1781765984116,0.8849,-2.2688,-3.2168,-0.3728,-1.7941,0.6917
1781765984137,1.1685,-0.183,-0.6543,-0.2937,-1.7332,0.5209
1781765984157,4.8293,0.9802,1.2305,-0.1791,-1.5723,0.0029
1781765984177,7.8811,0.968,1.9368,-0.0941,-1.5275,-0.5966
1781765984199,8.9992,-0.4953,2.1891,-0.0941,-1.5275,-0.5966
1781765984217,7.1309,-2.3423,0.5852,-0.4048,-0.1375,-1.2425
1781765984236,2.2639,-1.8186,-2.3099,-0.4048,-0.1375,-1.2425
1781765984257,-2.2041,-1.7662,-4.3282,-0.8509,0.3938,-1.1832
1781765984276,-5.21,-0.7259,-2.6351,-1.0113,-0.0345,-0.8022
1781765984297,-4.9005,1.0401,-0.8381,-0.881,-0.3723,-0.38
1781765984317,-2.2914,1.5417,-0.2757,-0.9124,-0.2708,-0.2658
1781765984337,0.0222,0.7607,0.6077,-1.0223,0.1756,-0.1646
1781765984356,0.862,0.2722,1.6833,-1.038,0.3893,-0.1958
1781765984376,0.9073,-0.089,2.3711,-0.8642,0.3374,-0.3053
1781765984399,0.4886,-0.0675,1.9445,-0.7421,0.3179,-0.3799
1781765984417,0.0415,0.1124,1.4674,-0.8173,0.2594,-0.3746
1781765984437,-0.3172,0.0933,1.6822,-1.0216,0.2142,-0.2993
1781765984456,0.0184,0.2372,3.0012,-1.1676,0.2253,-0.2655
1781765984477,-0.1005,0.8146,4.0646,-1.1122,0.4633,-0.3586
1781765984499,0.2043,1.2218,4.6823,-0.9458,0.4214,-0.4692
1781765984516,0.1287,1.0575,5.2653,-0.7333,0.2793,-0.6183
1781765984537,-0.1559,0.8933,5.741,-0.3884,0.3581,-0.7371
1781765984557,-2.0244,0.8624,4.7702,-0.0824,0.587,-0.8835
1781765984576,-5.4385,1.5103,2.3148,-0.0395,1.1484,-0.6577
1781765984597,-6.6165,2.5853,1.1687,-0.1682,0.7952,-0.5846
1781765984616,-4.9068,2.2422,1.5769,0.0416,1.1186,-0.0493
1781765984637,-1.208,-0.2879,-0.585,0.212,1.0185,0.4168
1781765984657,1.4685,-5.2019,-2.7451,0.1491,0.7668,0.6615
1781765984676,5.099,-7.2442,-4.2729,-0.0319,0.4291,0.5638
1781765984697,4.7656,-7.8439,-6.1973,-0.3115,0.5768,0.1746
1781765984716,3.4554,-7.0027,-6.4693,-0.4596,1.1391,-0.3759
1781765984736,0.136,-4.0744,-4.9225,-0.3122,1.4408,-0.6842
1781765984757,-1.6348,-1.0287,-3.7767,-0.1843,1.0577,-0.554
1781765984776,-0.9629,1.2847,-2.8706,-0.2526,0.4665,-0.2843
1781765984796,0.0457,3.2086,-1.1575,-0.3157,0.4147,-0.0376
1781765984816,1.2185,4.484,0.5462,-0.3959,0.6342,0.1658
1781765984836,2.0321,5.5253,3.7999,-0.4022,1.1804,0.2726
1781765984857,1.7903,5.8968,4.7099,-0.3019,1.2682,0.2138
1781765984877,-1.0262,6.2674,5.6354,-0.0976,0.7304,0.4571
1781765984896,-1.281,4.6599,5.1611,0.155,-0.2259,0.645
1781765984916,-2.7092,1.906,3.1176,0.3188,-1.0662,0.7868
1781765984937,-3.2155,-0.1752,1.9419,0.4287,-1.8194,0.9468
1781765984956,-2.6689,-0.5239,1.478,0.5901,-2.2385,1.0187
1781765984976,-1.8856,-0.2297,0.8572,0.8017,-2.4542,0.8993
1781765984997,-1.6897,-0.2133,0.4368,1.0051,-2.3389,0.7687
1781765985016,-1.7952,-0.375,1.7969,1.2002,-1.6997,0.6425
1781765985036,-2.4332,-0.8763,3.5251,1.4461,-0.8139,0.5512
1781765985057,-2.9487,-1.127,3.8574,1.8026,0.0712,0.4357
1781765985077,-2.739,-0.5437,2.8077,1.996,0.5381,0.4246
1781765985096,-2.5876,0.3696,1.9134,2.0545,0.7061,0.4998
1781765985117,-3.073,-0.1555,-0.6063,1.9262,0.3916,0.6879
1781765985137,-2.5089,-3.3251,-2.1505,1.818,-0.3422,0.7999
1781765985156,-1.3785,-6.6978,-3.4779,1.6663,-0.4838,0.6626
1781765985177,0.7855,-6.6366,-5.4696,1.2029,0.4198,0.67
1781765985197,4.6164,-1.3198,-3.7108,0.6534,0.3702,0.7268
1781765985216,6.1936,0.8672,-1.2169,0.518,-0.6477,0.4816
1781765985237,4.9278,-0.0741,-0.9403,0.4219,0.203,0.3756
1781765985256,4.3786,-3.7884,-1.6263,0.1945,0.7732,0.4471
1781765985277,2.9781,-5.2104,-1.1414,0.0844,-0.2831,0.4575
1781765985297,2.7463,-1.3373,-0.6166,-0.205,-0.7505,0.1898
1781765985316,6.5894,-2.0002,-1.2869,-0.4764,-0.9806,-0.2234
1781765985336,8.1118,-2.5136,-0.9869,-0.3992,-1.1357,-0.7257
1781765985357,7.2588,-1.594,-1.9663,-0.4027,-0.5434,-1.0841
1781765985376,4.3945,-0.8675,-2.6076,-0.6773,0.5257,-1.42
1781765985397,0.9117,-0.7708,-1.7902,-0.8596,1.1117,-1.3468
1781765985417,-1.7991,0.2333,-0.8649,-0.7758,0.902,-1.0485
1781765985436,-3.8733,1.5868,-0.7479,-0.6707,0.119,-0.6916
1781765985457,-4.1471,2.0615,-0.5716,-0.7854,-0.3401,-0.4138
1781765985477,-2.2805,1.1818,-0.1661,-0.9091,-0.0886,-0.2153
1781765985496,-0.202,0.3856,0.8274,-0.8332,-0.0256,-0.1479
1781765985517,-0.202,0.3856,0.8274,-0.6127,-0.0199,-0.194
1781765985536,1.5588,-1.2509,0.9238,-0.5154,0.1542,-0.3075
1781765985557,2.2154,-1.1733,0.459,-0.6348,0.3906,-0.4551
1781765985577,2.2482,-0.4504,-0.0512,-0.8568,0.3121,-0.6134
1781765985596,1.5481,-0.0867,-0.3551,-1.0412,0.1571,-0.7338
1781765985617,1.1875,0.2024,1.4325,-1.1889,-0.1813,-0.8452
1781765985637,0.8952,0.4434,2.9924,-1.0517,-0.5392,-0.955
1781765985656,0.6461,0.9708,3.6601,-0.9679,-0.5487,-0.9909
1781765985677,0.9265,1.2306,4.1925,-0.8436,-0.4838,-1.0539
1781765985696,0.0437,0.2084,4.2301,-0.7899,-0.3029,-0.995
1781765985717,-1.6411,-0.2928,4.1506,-0.7897,-0.766,-0.642
1781765985737,-2.9166,0.0809,3.5832,-0.8148,-1.662,-0.363
1781765985756,-4.1058,-0.3886,4.0588,-0.6512,-1.4448,-0.2833
1781765985777,-4.4238,-0.5171,5.1544,-0.5266,-1.2181,-0.1746
1781765985797,-3.6595,-0.0881,5.2414,-0.3843,-0.8156,-0.2046
1781765985816,-3.6595,-0.0881,5.2414,-0.2079,-0.4392,-0.1468
1781765985837,-2.4513,1.395,2.3984,0.0057,-0.1853,-0.1168
1781765985856,-3.5865,1.7935,0.8852,0.1973,0.0603,-0.0301
1781765985877,-4.9049,1.0616,-0.3475,0.3978,0.4335,0.1448
1781765985897,-4.3509,-0.3082,-1.7437,0.6492,0.7438,0.3289
1781765985917,-4.3509,-0.3082,-1.7437,0.7885,0.8809,0.4192
1781765985937,1.3167,-5.4678,-5.3722,0.5638,0.9568,0.4573
1781765985957,3.567,-7.1759,-7.1168,-0.0406,0.8832,0.2663
1781765985976,6.1948,-6.5468,-6.074,-0.7735,1.2732,-0.0139
1781765985997,5.1606,-3.6591,-2.2491,-1.1174,1.51,-0.3625
1781765986017,1.6593,-0.8713,0.0443,-0.9427,1.5894,-0.5291
1781765986036,1.6593,-0.8713,0.0443,-0.6461,1.4485,-0.4933
1781765986057,-0.0193,1.7069,0.8945,-0.5647,1.3657,-0.3586
1781765986077,-1.4205,3.3168,0.8171,-0.5806,1.5551,-0.2088
1781765986096,-1.7392,4.8003,1.4217,-0.4043,1.4487,-0.0798
1781765986117,-1.3711,5.6881,2.938,-0.0464,1.021,0.15
1781765986137,-1.1903,5.1972,3.6632,0.288,0.3746,0.3853
1781765986155,-0.9445,3.5334,3.1105,0.3649,-0.2233,0.6516
1781765986177,-1.4422,1.5144,2.0901,0.2629,-0.5803,0.9338
1781765986196,-1.6762,0.3019,1.7602,0.1772,-0.7892,1.1415
1781765986217,-1.5645,-0.3168,2.0903,0.1772,-0.7892,1.1415
1781765986236,-1.2078,-0.6928,2.0859,0.4092,-0.8845,1.208
1781765986256,-1.0855,-0.8503,1.5036,0.6081,-0.827,1.0948
1781765986276,-0.5358,-0.5194,1.0274,0.8032,-0.7185,0.9356
1781765986297,-0.1776,-0.0298,1.2474,1.0067,-0.6871,0.8548
1781765986317,-0.675,0.1947,1.9819,1.1553,-0.5109,0.8631
1781765986336,-1.4442,0.6156,2.6637,1.3995,-0.3844,0.819
1781765986357,-1.4822,0.8113,4.3994,1.8809,0.0818,0.8609
1781765986377,-2.5052,0.5583,5.5641,2.3311,0.0475,0.9588
1781765986396,-2.6656,-0.3594,4.0399,2.4374,-0.3846,1.1112
1781765986417,-2.8529,-2.3796,0.9087,2.4374,-0.3846,1.1112
1781765986437,-0.201,-5.3667,-1.9512,1.5329,-0.0227,0.7293
1781765986456,1.547,-5.285,-4.198,0.9647,0.2715,0.7908
1781765986476,3.7422,-0.9762,-4.0759,0.945,-0.2232,0.9702
1781765986497,3.2669,-1.7902,-0.7488,1.2332,0.337,1.1569
1781765986518,1.6105,-4.5413,-1.1592,1.2332,0.337,1.1569
1781765986536,0.5863,-4.124,-5.7354,-1.163,-1.3493,1.5659
1781765986556,-0.9447,-1.8315,-12.9216,-1.5652,-1.4937,0.7974
1781765986577,8.3147,-7.6967,-4.018,-0.4482,-1.3985,-0.838
1781765986597,11.4624,-7.7187,3.0422,-0.3757,0.0295,-1.1534
1781765986619,12.3828,-2.4814,0.7482,-0.3757,0.0295,-1.1534
1781765986637,11.5573,0.815,-1.0892,-1.5375,2.533,-1.579
1781765986656,9.3521,0.7957,-0.5642,-1.5375,2.533,-1.579
1781765986677,3.4951,-0.2606,1.3834,-1.1401,2.8756,-1.9911
1781765986696,-2.9657,-0.2604,0.754,-0.4666,2.0087,-1.7806
1781765986718,-9.3979,0.464,-1.9102,-0.4055,0.3599,-1.0229
1781765986736,-9.3965,2.4771,-2.3533,-0.8346,-0.9709,-0.1738
1781765986757,-6.4711,2.0854,-1.6462,-1.0291,-0.6068,-0.081
1781765986776,-2.7827,1.249,-0.3322,-0.9089,-0.0027,0.222
1781765986797,0.2973,0.3911,1.8591,-0.8875,0.354,0.247
1781765986817,2.9492,-0.149,3.4712,-0.6464,0.4802,0.0915
1781765986837,4.8316,-1.1596,3.5649,-0.1839,0.9866,-0.2195
1781765986856,5.8571,-1.544,1.8756,-0.2035,1.7988,-0.626
1781765986876,3.8438,-1.2392,1.7386,-0.4157,2.168,-0.8501
1781765986896,0.4087,-0.1442,1.6107,-0.4825,1.7531,-0.9805
1781765986918,-1.8246,0.7093,3.0564,-0.5349,0.7935,-0.8975
1781765986937,-3.0621,0.5931,4.9728,-0.4574,0.5469,-0.5091
1781765986956,-3.1211,1.1563,6.1636,-0.2685,0.6072,-0.2049
1781765986976,-3.0319,0.6536,5.6349,-0.0909,0.6717,-0.1377
1781765986997,-2.2667,-0.1858,3.867,-0.0836,0.4138,0.0835
1781765987018,-1.3256,-0.417,3.0059,-0.1708,0.2135,0.287
1781765987036,-0.4428,-0.1514,2.5096,-0.2539,-0.0817,0.4643
1781765987057,-0.3394,0.0141,1.8294,-0.2463,-0.1379,0.5319
1781765987076,-0.9676,0.5756,1.6495,-0.1321,-0.1093,0.5675
1781765987097,-1.2645,0.4465,1.1942,0.1033,0.1473,0.6581
1781765987118,0.318,0.0592,0.0553,0.417,0.479,0.7786
1781765987136,1.9932,-1.4789,-2.8329,0.3939,0.8927,0.7252
1781765987156,2.3596,-4.0801,-5.8958,-0.2586,1.1335,0.5636
1781765987177,2.6694,-6.3258,-5.3619,-0.8753,1.4434,0.1897
1781765987197,3.0027,-5.2447,-2.9168,-0.7975,1.9529,-0.4188
1781765987218,-1.2152,-2.8536,-0.6654,-0.3105,2.0762,-0.5821
1781765987237,-2.6002,0.1287,0.5981,0.1564,2.2814,-0.4389
1781765987256,-2.6062,2.4625,1.046,0.3302,2.5113,-0.2015
1781765987276,-2.4223,3.6802,1.98,0.3993,2.8921,0.0017
1781765987297,-2.3352,4.0813,3.568,0.3005,2.9601,0.3325
1781765987317,-1.4531,3.932,5.1027,0.361,3.0623,0.6028
1781765987337,-0.2399,3.7325,6.7575,0.6751,2.412,0.8053
1781765987357,-0.1452,1.7857,6.5378,1.1504,1.7928,0.8959
1781765987376,0.2078,-1.2945,3.447,1.2869,2.0443,0.8311
1781765987397,0.1397,-1.7252,0.6302,0.8707,1.839,0.8815
1781765987417,-1.6581,-1.3042,-1.6273,0.0634,1.3104,1.1832
1781765987436,-2.1265,-0.8533,-1.4876,-0.6312,1.1616,1.4935
1781765987457,-0.6878,-1.0123,0.8714,-0.7844,1.7126,1.5659
1781765987477,0.9631,-2.047,3.4085,-0.3439,2.5405,1.3894
1781765987496,1.0495,-1.9271,5.0524,0.327,2.9335,1.1103
1781765987516,0.765,-1.814,5.8355,0.868,2.7326,0.8845
1781765987537,0.0075,-1.1247,4.7323,1.1773,2.8127,0.6649
1781765987557,1.4404,-0.7892,4.8549,1.1444,2.4195,0.4955
1781765987576,3.5905,-0.4612,5.4803,1.144,1.6295,0.4118
1781765987597,4.7725,0.1541,4.7223,1.1902,1.0112,0.4548
1781765987616,5.086,0.8448,2.516,1.1081,0.7608,0.4097
1781765987637,4.8714,1.0532,0.7305,0.9709,0.8,0.2672
1781765987656,4.029,0.5427,-0.0732,0.951,0.968,0.1322
1781765987676,2.1738,0.1992,0.4719,1.0549,0.9524,-0.0009
1781765987696,-0.6758,-0.0483,2.5087,1.2835,0.8416,-0.0618
1781765987717,-2.8771,0.7193,4.3589,1.5301,0.8612,-0.0187
1781765987737,-4.3011,1.7309,4.8942,1.6217,0.8875,0.0898
1781765987756,-5.3838,0.1093,2.7948,1.6716,0.7656,0.2601
1781765987777,-1.9305,-6.0664,1.4842,1.8739,0.7167,0.3775
1781765987797,2.3191,-4.1549,-0.045,1.6336,0.8043,0.2318
1781765987818,4.0307,-3.5735,-2.3782,1.4374,0.6995,-0.0304
1781765987837,3.5589,-4.7154,-4.6578,0.818,0.3467,-0.1596
1781765987856,1.4146,-2.9142,-5.1088,0.1387,0.4663,-0.144
1781765987877,-0.0867,-2.9691,-2.6235,-0.1339,0.2891,-0.0377
1781765987896,0.1464,-2.1036,-1.1468,-0.2362,-0.3493,0.1619
1781765987917,2.461,-1.0268,-0.7152,-0.3618,-1.0392,0.29
1781765987937,5.1225,-0.3979,0.1937,-0.3073,-1.1898,0.1403
1781765987956,6.2412,0.2481,1.1314,-0.1865,-0.7589,-0.2438
1781765987976,5.9166,0.806,1.6559,-0.0523,0.0027,-0.6117
1781765987997,2.4106,0.681,1.3121,-0.0367,0.4455,-0.868
1781765988016,-0.4544,0.4501,1.0728,0.0586,0.5218,-0.8304
1781765988035,-2.6988,0.7916,-0.0621,0.0501,0.4986,-0.6705
1781765988056,-3.7878,1.0411,-1.6091,-0.0782,0.3821,-0.4519
1781765988076,-3.1892,0.7763,-2.192,-0.2962,0.4836,-0.2572
1781765988097,-1.7058,0.7113,-1.3853,-0.4184,0.8166,-0.1979
1781765988116,-0.1166,0.4881,0.0174,-0.4603,0.8839,-0.1414
1781765988136,1.5597,-0.1961,0.7353,-0.4331,0.7132,-0.1936
1781765988156,2.32,-0.7395,0.606,-0.3826,0.8966,-0.3198
1781765988176,2.4115,-0.6403,-0.0303,-0.4257,1.1923,-0.4566
1781765988196,2.1487,-0.2878,0.1686,-0.5531,1.0072,-0.5134
1781765988216,2.0096,-0.0562,0.8451,-0.6795,0.6254,-0.5417
1781765988236,1.5922,0.4178,1.8061,-0.8154,0.3569,-0.6079
1781765988256,0.9458,0.8168,2.9234,-0.7744,0.3009,-0.7343
1781765988276,0.3977,0.3564,3.5322,-0.7349,0.0332,-0.7955
1781765988296,-0.5732,-0.0449,4.0875,-0.6755,-0.1859,-0.7262
1781765988316,-1.3076,-0.0845,4.3637,-0.5548,-0.2757,-0.6018
1781765988337,-2.6338,-0.2141,4.7952,-0.3901,-0.4356,-0.5338
1781765988356,-5.3472,-0.144,4.4332,-0.2901,-0.3947,-0.3519
1781765988376,-5.3472,-0.144,4.4332,-0.2799,0.0704,-0.1947
1781765988397,-9.5499,3.302,1.4863,-0.386,0.0529,-0.0457
1781765988416,-8.5409,4.1915,2.5362,-0.1629,-0.1166,0.3948
1781765988436,-8.5409,4.1915,2.5362,0.3814,0.267,0.8655
1781765988456,-1.4235,1.9304,3.0064,0.8805,0.9,0.9669
1781765988477,1.3958,-1.3922,0.8586,1.0976,1.2113,0.6434
1781765988497,4.3185,-7.6667,-3.5105,0.7318,1.78,0.2968
1781765988516,4.3185,-7.6667,-3.5105,-0.2555,2.5362,-0.1774
1781765988536,8.0065,-11.1687,-7.6831,-1.082,3.2927,-0.7487
1781765988557,11.1245,-10.5166,-6.9785,-1.3962,2.6961,-1.0453
1781765988576,7.0856,-8.6591,-4.5246,-1.4656,1.5321,-0.6941
1781765988596,2.2513,-5.0493,-2.4983,-1.5324,0.8957,-0.2569
1781765988617,0.1025,-1.2909,0.0673,-1.6011,0.2589,0.1823
1781765988636,-0.3693,1.6076,1.5562,-1.5552,-0.1164,0.5081
1781765988656,-0.4557,3.5082,2.2719,-1.2789,-0.1614,0.7489
1781765988677,-0.8101,4.6849,3.3213,-0.7878,-0.2317,0.9134
1781765988696,-0.9319,4.2333,3.7524,-0.2982,-0.2552,0.9723
1781765988717,-0.6802,3.3598,3.7212,0.0439,-0.019,0.7916
1781765988736,-0.5496,2.3,3.7187,0.4029,0.6026,0.6431
1781765988756,-2.0514,1.8746,3.7206,0.6428,1.0036,0.5015
1781765988776,-3.2167,1.9003,2.5879,0.6799,1.437,0.6366
1781765988797,-4.5488,2.4527,0.4684,0.4532,1.7526,0.7697
1781765988816,-5.2122,1.6389,-0.9282,0.2329,1.8718,1.1095
1781765988836,-4.7395,0.4969,0.4565,0.2495,1.7986,1.3088
1781765988857,-3.3551,-0.3769,2.7198,0.3506,1.665,1.3395
1781765988876,-1.3971,-0.6795,4.1915,0.6299,1.7863,1.1145
1781765988896,0.9368,-0.5841,5.3515,0.9994,1.9719,0.8399
1781765988917,2.5111,-0.3513,5.8237,1.046,2.4343,0.6744
1781765988936,2.6364,-0.0962,4.9822,0.8406,2.5563,0.7037
1781765988956,2.5856,0.3459,5.0112,0.769,2.3065,0.6854
1781765988976,1.8071,0.2477,4.7784,0.8967,1.9073,0.6954
1781765988997,0.6407,-0.5899,4.2419,1.2225,1.6472,0.7297
1781765989017,-0.3252,-1.696,3.7519,1.6278,1.4744,0.7511
1781765989036,0.2189,-2.1804,3.3269,1.8228,1.1748,0.6907
1781765989056,2.3542,-0.9706,2.5064,1.8709,0.6224,0.5707
1781765989076,3.6578,-0.1119,2.3198,1.8709,0.6224,0.5707
1781765989096,3.6799,0.2304,2.0474,1.6672,0.2313,0.4779
1781765989115,2.9752,0.8083,2.7887,1.4739,0.1797,0.3311
1781765989136,0.8707,0.7027,3.8751,1.6167,0.2136,0.105
1781765989157,-2.1578,0.3332,4.9132,2.0435,0.79,0.0055
1781765989176,-5.6293,-1.6879,2.9371,2.3315,1.3331,0.0251
1781765989196,-7.7832,-4.2554,-1.9913,2.0836,1.1643,0.3044
1781765989217,-1.9921,-5.4786,-3.9495,1.7255,1.2188,0.3936
1781765989236,2.0692,-4.8822,-4.3914,1.2361,1.1814,0.4672
1781765989256,4.4414,-5.2255,-5.2378,0.7799,1.1161,0.3671
1781765989277,3.6078,-10.7958,-6.6579,0.0765,0.8633,0.3619
1781765989297,1.6423,-5.3748,-4.0991,-0.5209,0.2209,0.4156
1781765989316,4.0904,1.0448,-0.3515,-0.706,-0.186,0.3939
1781765989336,6.9198,2.9729,2.5656,-0.5025,-0.4421,0.1979
1781765989356,9.4534,3.1806,4.9411,-0.0249,-0.4512,-0.3969
1781765989376,9.5339,1.0418,4.1784,0.4013,-0.1274,-1.0756
1781765989397,7.5286,-1.2207,-0.5993,0.3478,0.3971,-1.0137
1781765989417,3.4055,-2.5299,-5.9666,-0.1362,0.7633,-1.2418
1781765989436,-1.5828,-2.4176,-7.2074,-1.0573,0.705,-1.0028
1781765989456,-2.3423,-0.4797,-2.3617,-1.3505,0.6364,-0.7561
1781765989477,-1.9349,1.0334,0.5237,-1.0947,0.4667,-0.637
1781765989497,-1.8927,1.5385,0.6926,-0.8643,0.5617,-0.575
1781765989516,-1.3039,1.324,0.9818,-0.7094,0.8315,-0.5149
1781765989537,-0.0535,0.562,1.3271,-0.5505,0.8042,-0.4228
1781765989557,1.289,0.2788,1.1579,-0.4155,0.5793,-0.3389
1781765989576,2.2696,-0.1795,0.7589,-0.3423,0.3708,-0.372
1781765989596,2.4415,-0.7237,0.6416,-0.4069,0.2285,-0.4347
1781765989617,2.177,-0.7126,1.2396,-0.5834,0.0778,-0.5022
1781765989637,1.2463,-0.0563,2.1848,-0.7153,-0.0941,-0.5411
1781765989656,0.1834,0.1442,3.0443,-0.7021,-0.3917,-0.578
1781765989676,-0.8741,0.2034,3.5506,-0.6556,-0.6726,-0.5876
1781765989697,-2.1348,-0.4053,4.0144,-0.5078,-0.9565,-0.4773
1781765989717,-3.4385,0.4583,3.9849,-0.3012,-0.9057,-0.1788
1781765989737,-4.394,2.3466,3.4636,-0.1887,-0.6092,-0.1694
1781765989757,-6.4038,2.0925,3.1962,-0.1824,-0.4498,-0.1723
1781765989777,-5.7455,0.7112,2.9226,-0.0667,-0.3942,0.2545
1781765989797,-3.712,-0.6062,1.0916,0.136,-0.2622,0.5525
1781765989817,-3.2373,-2.9299,-0.8351,0.2567,-0.0848,0.6504
1781765989836,-1.4783,-5.1967,-4.2777,0.303,0.1516,0.6564
1781765989857,1.5166,-5.1764,-6.654,0.0805,0.3984,0.3807
1781765989877,4.2399,-3.5209,-5.5296,-0.1646,1.3308,-0.1633
1781765989896,3.7723,-0.8903,-3.1412,-0.0996,2.3605,-0.444
1781765989916,0.9557,1.1089,-1.786,-0.0236,2.5157,-0.6859
1781765989937,-0.3969,2.5058,-0.5957,0.1003,2.4449,-0.6185
1781765989957,0.0481,3.2528,-0.3655,0.1576,2.0621,-0.4391
1781765989976,0.0946,3.5978,-0.3531,0.0897,1.3955,-0.1776
1781765989996,0.0737,3.7051,-0.2082,-0.1391,0.9653,0.0612
1781765990016,0.2096,3.1477,0.7521,-0.3303,0.6182,0.2367
1781765990036,0.0719,2.6949,1.8537,-0.3932,0.2836,0.3346
1781765990056,-0.7583,1.483,3.1552,-0.2243,-0.1155,0.4217
1781765990077,-1.8155,-0.0617,3.9247,0.1761,-0.6305,0.4769
1781765990097,-2.5511,-0.029,3.586,0.5528,-0.9796,0.5119
1781765990115,-2.4141,0.6579,2.9786,0.8702,-0.7302,0.5323
1781765990137,-1.8146,0.1396,1.5843,1.0395,-0.3956,0.5292
1781765990157,-1.37,-0.3844,1.2118,1.1522,0.1329,0.4778
1781765990176,-1.2831,-0.5748,0.5888,1.29,0.5475,0.3707
1781765990196,-1.5722,-0.0294,0.2016,1.4058,0.5262,0.2948
1781765990216,-2.8217,0.0276,1.197,1.5629,0.7551,0.3952
1781765990236,-3.414,-0.2158,1.5798,1.5876,0.7441,0.5152
1781765990256,-3.9065,-0.1637,2.2062,1.548,0.6929,0.6692
1781765990277,-4.6651,-2.9372,-0.4741,1.4716,0.1859,0.798
1781765990297,-1.529,-5.487,-2.857,1.2856,-0.3519,0.7839
1781765990316,2.1788,-4.0773,-2.0019,1.1123,-0.2848,0.6199
1781765990337,4.4784,-1.4762,-1.4902,0.9546,0.1137,0.3398
1781765990357,4.9932,1.1252,-1.5554,0.7676,1.106,0.1909
1781765990376,3.7372,1.7258,-2.1632,0.4349,2.3643,0.1528
1781765990396,1.0834,0.5856,-2.3623,0.3348,2.1152,0.3449
1781765990417,-0.2303,-4.0521,-2.8299,0.3303,-0.2941,0.6687
1781765990437,0.3055,-4.4156,-0.8229,0.1695,-1.9926,0.6548
1781765990456,4.914,-1.4956,-0.1391,0.1136,-1.1839,0.4299
1781765990476,8.6627,-0.9854,-2.2305,-0.3019,-0.5409,-0.173
1781765990497,8.9209,-0.9934,-2.555,-0.5279,-0.6062,-0.686
1781765990517,5.8771,-1.8325,-3.0973,-0.7106,-0.1367,-1.1272
1781765990537,5.8771,-1.8325,-3.0973,-0.9227,0.7929,-1.2869
1781765990557,-1.6196,-1.341,-0.9509,-0.93,1.2679,-0.9605
1781765990576,-2.4843,1.2081,-0.1055,-0.7891,0.9797,-0.8035
1781765990596,-3.1202,2.138,-0.3626,-0.6325,0.4295,-0.6505
1781765990617,-1.0398,1.2999,-1.1193,-0.6597,-0.0253,-0.3851
1781765990637,-1.0398,1.2999,-1.1193,-0.7336,0.0013,-0.3297
1781765990657,1.0126,-0.4931,0.6004,-0.6949,0.1493,-0.3904
1781765990676,1.6855,-0.4572,0.9854,-0.6052,0.2964,-0.5226
1781765990696,1.9855,-0.4017,0.8064,-0.5464,0.2819,-0.696
1781765990717,1.3484,-0.1179,0.2704,-0.5863,0.1637,-0.8397
1781765990737,1.3484,-0.1179,0.2704,-0.7322,-0.0017,-0.8901
1781765990756,-0.4904,-0.5131,0.353,-0.8665,-0.2616,-0.8776
1781765990776,-1.1197,-0.2168,1.0413,-0.9534,-0.1972,-0.8083
1781765990796,-1.6284,0.9226,2.5333,-0.9102,0.0767,-0.8352
1781765990816,-1.973,1.5811,3.4505,-0.6832,0.176,-0.812
1781765990836,-2.5455,1.2026,3.8004,-0.3877,-0.1157,-0.7043
1781765990857,-3.3189,0.8102,3.1924,-0.2622,-0.4121,-0.527
1781765990877,-3.4801,-0.0819,2.6439,-0.3314,-0.5606,-0.3295
1781765990896,-3.4801,-0.0819,2.6439,-0.3768,-0.5583,-0.2347
1781765990916,-2.9383,-1.1495,2.9804,-0.2661,-0.3835,-0.2715
1781765990937,-1.9618,-0.6177,2.6721,-0.0791,-0.3108,-0.2824
1781765990956,-1.1887,-0.526,1.7694,0.0274,-0.1935,-0.2928
1781765990977,-1.5349,-0.4629,0.8702,0.0879,0.0591,-0.0552
1781765990997,-2.7017,-0.7022,-0.6926,0.1298,0.1689,0.2721
1781765991016,-1.6528,-1.3943,-3.5313,-0.1372,0.2448,0.4511
1781765991036,0.5102,-2.9489,-7.2452,-0.4171,0.5559,0.3676
1781765991057,3.1173,-4.3969,-7.0717,-0.5167,0.6836,0.0674
1781765991076,3.9463,-3.7618,-3.9323,-0.6155,0.6322,-0.1766
1781765991096,2.548,-1.6962,-1.6642,-0.6724,0.7052,-0.248
1781765991117,0.7094,0.638,-0.2972,-0.5714,0.6485,-0.1671
1781765991137,-0.0579,2.3772,1.3019,-0.3436,0.5895,-0.0181
1781765991155,-0.8255,3.3348,2.4641,-0.0502,0.4606,0.1591
1781765991176,-1.2591,3.6814,3.3428,0.141,0.2158,0.3207
1781765991197,-1.85,2.9887,2.6046,0.195,0.0316,0.4605
1781765991217,-2.208,2.2601,1.544,0.0837,-0.0689,0.6226
1781765991237,-2.6347,1.4971,-0.2575,-0.1066,-0.2703,0.7509
1781765991256,-2.9376,0.9745,-1.3424,-0.0769,-0.6535,0.8796
1781765991277,-2.1819,1.0319,-0.8877,0.2012,-0.8698,0.8662
1781765991297,-1.4922,1.4233,0.2469,0.4444,-0.7878,0.8152
1781765991317,-0.8645,1.4052,1.3577,0.4834,-0.6625,0.735
1781765991338,-0.3686,0.8298,2.3349,0.4834,-0.6625,0.735
1781765991356,-0.3591,0.3308,3.442,0.5512,0.3068,0.5245
1781765991377,-1.0731,0.2557,3.8095,0.7219,0.6787,0.4908
1781765991397,-1.6843,-0.0816,2.7476,0.8523,0.3804,0.5268
1781765991417,-2.376,-0.0696,0.9856,0.9315,-0.0102,0.6002
1781765991436,-2.414,-0.2747,0.0533,1.0391,-0.2255,0.5406
1781765991456,-1.073,0.1122,0.7248,1.132,-0.1582,0.4272
1781765991477,-0.076,0.1777,1.973,1.2247,0.2528,0.3302
1781765991497,0.4638,0.5239,3.1578,1.3435,0.7206,0.3057
1781765991516,0.282,0.9128,3.3095,1.3435,0.7206,0.3057
1781765991537,-0.9792,0.4357,2.5358,1.5894,0.9605,0.1981
1781765991557,-3.1563,-0.0673,0.0229,1.2679,0.7861,0.2575
1781765991576,-4.2258,-3.1251,-4.6094,1.2679,0.7861,0.2575
1781765991596,-1.2352,-6.5459,-1.8164,1.0564,0.9121,0.1874
1781765991616,1.987,-3.3486,-0.6815,1.1013,0.6815,0.18
1781765991636,4.3819,-0.8695,-1.6345,0.8987,0.4033,0.0547
1781765991656,5.5051,-0.956,-3.3594,0.6244,0.3027,-0.0537
1781765991676,6.0366,-2.1098,-5.3874,0.3394,0.3953,-0.1352
1781765991696,4.2648,-3.0284,-3.8363,-0.0479,0.3472,-0.2933
1781765991717,2.1972,-4.4049,-1.2435,-0.2163,-0.0066,-0.244
1781765991737,2.7709,-4.6217,0.4846,-0.232,-0.625,-0.2097
1781765991756,3.8257,-2.6434,1.1695,0.0297,-0.8313,-0.3094
1781765991777,3.3878,0.3567,-0.1459,0.1074,-0.2555,-0.467
1781765991797,2.467,1.5275,-0.0981,-0.0323,0.1343,-0.5131
1781765991816,1.4333,2.2158,0.4949,-0.0594,0.0908,-0.5286
1781765991837,0.2776,2.3852,0.4077,0.0285,-0.1583,-0.5151
1781765991857,-0.7394,1.5697,-1.2048,0.1276,-0.3566,-0.4616
1781765991876,-1.2139,-0.0645,-3.4356,0.0507,-0.348,-0.3619
1781765991896,-0.8912,-0.4867,-3.555,-0.2139,-0.1335,-0.2762
1781765991917,0.0804,-0.3457,-2.5925,-0.3517,0.0677,-0.2618
1781765991937,0.915,-0.4616,-1.8538,-0.435,0.1449,-0.274
1781765991956,1.3102,-0.5868,-1.2066,-0.4621,0.2595,-0.2668
1781765991977,1.1106,-0.7082,-0.9564,-0.4931,0.3555,-0.3201
1781765991997,0.8957,-0.3117,-0.6607,-0.5542,0.3331,-0.3519
1781765992016,0.7339,-0.249,-0.2311,-0.5631,0.0693,-0.3519
1781765992036,0.5054,-0.4361,0.11,-0.545,-0.3259,-0.3319
1781765992056,0.368,-0.2885,0.2951,-0.6024,-0.405,-0.3411
1781765992077,0.5926,0.356,0.5308,-0.6858,-0.2836,-0.3804
1781765992097,0.6974,0.6568,0.9475,-0.744,-0.3313,-0.4405
1781765992116,0.5119,0.3318,1.599,-0.7918,-0.609,-0.4903
1781765992137,0.0413,-0.504,2.3086,-0.8115,-0.8419,-0.5867
1781765992156,-0.8412,-0.6129,2.2663,-0.9111,-0.6316,-0.6284
1781765992176,-2.0836,0.2895,1.8318,-0.9222,-0.5418,-0.7008
1781765992197,-3.1301,0.7219,1.5446,-1.0002,-0.7106,-0.6985
1781765992216,-4.1998,0.827,3.0209,-0.9405,-0.6741,-0.6588
1781765992236,-4.1922,1.0061,3.0674,-0.6309,-0.5466,-0.6393
1781765992257,-4.1051,1.0121,2.7724,-0.3303,-0.746,-0.4984
1781765992277,-4.4036,0.6583,2.1734,-0.1063,-0.8224,-0.2061
1781765992296,-4.6108,0.6768,2.2808,0.1503,-0.566,0.1725
1781765992317,-4.1182,0.6682,1.3946,0.4231,-0.3745,0.5276
1781765992337,-4.1847,-1.4099,-0.4812,0.7595,-0.1874,0.6995
1781765992357,-3.177,-4.0822,-5.3999,0.6914,-0.2095,0.8079
1781765992377,-0.2258,-6.7692,-10.7999,-0.1105,0.0956,0.8489
1781765992396,6.9968,-7.7384,-7.8632,-0.6764,0.9104,0.4055
1781765992417,8.4682,-4.2053,-3.1101,-0.597,1.2593,-0.2945
1781765992437,4.4344,0.4379,-0.7357,-0.5635,1.4022,-0.6434
1781765992456,1.1868,2.7343,0.8571,-0.7169,1.7535,-0.7651
1781765992476,-2.0168,4.4757,2.828,-0.6467,1.6737,-0.6714
1781765992496,-4.6084,6.024,4.2003,-0.3465,1.498,-0.3576
1781765992516,-5.7863,6.6864,3.3348,-0.0131,1.0022,0.1048
1781765992536,-4.7136,5.8832,0.5223,0.0949,0.4243,0.5611
1781765992556,-3.5268,4.1553,-2.99,-0.0772,0.2346,0.9276
1781765992576,-2.5726,1.3626,-4.3528,-0.3976,0.0681,1.291
1781765992596,-1.5657,-1.4154,-2.8882,-0.3352,-0.6658,1.5965
1781765992616,-0.5645,-2.7792,0.3014,-0.0338,-1.2257,1.4083
1781765992637,0.7788,-2.3088,3.3446,0.4042,-1.8846,1.1601
1781765992657,0.6319,0.3754,4.8647,0.7575,-2.0176,0.8951
1781765992677,-0.0516,1.7786,4.8126,0.8755,-1.2114,0.6634
1781765992696,-1.0,1.3932,4.4394,1.1359,-0.2404,0.4216
1781765992717,-1.8826,0.5485,3.3154,1.5033,0.3842,0.3082
1781765992737,-3.5099,-0.0953,0.327,1.8359,0.0543,0.4258
1781765992756,-4.4517,-0.8985,-4.1865,1.8266,-1.0355,0.6862
1781765992776,-3.7783,-3.1226,-4.8644,1.4908,-1.0653,0.8511
1781765992797,-2.0203,-3.9857,-2.9024,1.1722,-0.5449,0.8271
1781765992817,0.1236,-5.1145,-1.9906,0.9146,-0.2004,0.7604
1781765992836,2.9669,-2.1683,-0.9701,0.8474,-0.2063,0.6472
1781765992856,4.6754,0.3252,-0.0988,0.8761,-0.3644,0.4585
1781765992876,5.1359,-0.0574,0.2984,0.9127,0.0405,0.4573
1781765992897,4.9844,-8.2458,-1.8556,0.844,0.5462,0.4621
1781765992917,4.9452,-8.3928,-5.4121,0.6046,-0.4302,0.4898
1781765992936,3.4359,1.4269,-5.3074,-0.1048,-1.2365,0.291
1781765992956,5.6601,1.1104,-2.0666,-0.6573,-1.1507,-0.0391
1781765992977,7.471,-1.7656,-0.4804,-0.773,-1.0039,-0.7233
1781765992997,5.8664,-2.6165,0.2971,-0.5641,-0.4678,-1.3114
1781765993016,3.073,-0.899,-1.3746,-0.597,0.6545,-1.6442
1781765993037,0.3448,-0.5251,-2.7935,-0.7309,1.2444,-1.625
1781765993057,-2.9602,0.0445,-2.909,-0.8179,0.9898,-1.3133
1781765993076,-5.1141,1.4615,-1.1766,-0.7745,0.5379,-0.8424
1781765993096,-5.3501,2.3721,-0.2252,-0.7848,0.4046,-0.5066
1781765993117,-2.6529,1.8182,0.0086,-0.7953,0.4043,-0.2061
1781765993137,-0.0533,0.9556,0.5444,-0.7474,0.2865,-0.0517
1781765993156,-0.0533,0.9556,0.5444,-0.5566,-0.1866,-0.1955
1781765993176,2.6451,-1.0012,1.4405,-0.3473,-0.5489,-0.3106
1781765993197,2.7394,-0.8026,0.4659,-0.4019,-0.2469,-0.4571
1781765993217,2.2954,-0.6783,0.2915,-0.5691,0.0155,-0.6769
1781765993236,1.0568,-0.8569,0.3102,-0.6708,-0.0135,-0.6748
1781765993256,-0.3147,-0.3329,0.9072,-0.7709,-0.1898,-0.6753
1781765993277,-1.0008,0.0518,2.3534,-0.8712,-0.1265,-0.6641
1781765993296,-1.0008,0.0518,2.3534,-0.7989,-0.3459,-0.6394
1781765993316,-1.3297,0.3641,3.6539,-0.6202,-0.6717,-0.5684
1781765993336,-1.9025,1.1762,4.2988,-0.4782,-0.9751,-0.4124
1781765993357,-2.4759,1.5938,3.7493,-0.3742,-1.1928,-0.2323
1781765993377,-3.3644,0.5628,3.9991,-0.2025,-1.1275,-0.0816
1781765993396,-3.3644,0.5628,3.9991,-0.1281,-1.0604,0.0643
1781765993416,-3.9301,0.8168,3.2994,-0.1297,-1.0006,0.1988
1781765993436,-4.0686,1.3416,3.0921,-0.1258,-1.0657,0.3087
1781765993458,-3.4555,1.7948,2.2179,-0.0112,-0.9409,0.365
1781765993476,-2.1781,2.0334,1.3664,0.2348,-0.5992,0.3449
1781765993497,-1.1622,1.734,0.8435,0.5089,-0.0972,0.2717
1781765993517,-0.9595,-0.5286,0.3242,0.6133,0.4831,0.2
1781765993536,-0.8639,-3.5398,-1.4155,0.261,0.7135,0.0764
1781765993557,-0.2352,-5.4872,-5.4537,-0.4758,1.0071,-0.138
1781765993577,0.9584,-7.33,-8.1451,-1.0142,1.5115,-0.4653
1781765993596,3.2012,-7.9769,-7.5129,-1.0309,1.5225,-0.8264
1781765993616,2.925,-5.1239,-4.1271,-0.6754,1.1691,-0.7141
1781765993637,-0.0273,-1.4581,-1.8197,-0.4538,0.7451,-0.4138
1781765993657,-0.0668,1.8291,-1.2342,-0.5311,0.4177,-0.115
1781765993676,-0.2226,3.4437,0.0263,-0.6257,0.4026,0.0883
1781765993696,-0.9842,4.5388,1.3251,-0.5606,0.4778,0.2356
1781765993716,-1.8538,5.2352,2.2826,-0.4027,0.5559,0.3592
1781765993737,-2.1521,4.9895,3.0176,-0.0572,0.4157,0.4598
1781765993757,-1.955,4.4107,3.4902,-0.0572,0.4157,0.4598
1781765993776,-1.4876,3.7186,2.6569,0.5504,-0.1709,0.6318
1781765993797,-0.9456,2.698,1.3932,0.5913,-0.3521,0.693
1781765993817,-0.951,1.5482,0.3321,0.5177,-0.5135,0.8126
1781765993836,-1.6685,0.3029,-0.3761,0.4709,-0.5294,0.8418
1781765993856,-2.0287,-0.8547,0.0459,0.5246,-0.5459,0.7678
1781765993877,-1.8014,-1.429,1.5386,0.7173,-0.4315,0.6813
1781765993897,-1.1148,-0.7391,2.965,0.9435,-0.174,0.5321
1781765993916,-1.1757,-0.1556,3.3021,0.9435,-0.174,0.5321
1781765993936,-1.6742,-0.2385,1.9913,1.0104,0.1934,0.4334
1781765993958,-1.78,0.1084,0.5439,0.9617,0.1328,0.4321
1781765993977,-1.6002,0.2885,-0.1349,0.9018,0.0652,0.4404
1781765993996,-1.4285,0.4394,-0.7236,0.9018,0.0652,0.4404
1781765994017,-1.3198,0.0957,-1.1388,0.8061,0.138,0.4013
1781765994037,-1.6842,-0.0375,-0.1679,0.8072,0.3168,0.3281
1781765994057,-1.632,-0.1653,1.1959,0.9742,0.4984,0.3848
1781765994076,-1.8509,-0.2851,1.774,1.149,0.6941,0.4458
1781765994097,-2.1927,-0.6559,1.3285,1.247,0.6382,0.5732
1781765994117,-3.3138,-2.3781,-0.5933,1.1078,0.3128,0.7068
1781765994136,-1.2306,-3.9922,-1.3116,1.0752,0.2721,0.6624
1781765994157,2.7494,-4.0404,-1.5263,1.1724,0.5294,0.4702
1781765994177,5.3268,-3.8781,-1.478,1.2569,0.2796,0.2668
1781765994196,6.7215,-2.5637,-1.5398,1.1549,-0.3373,-0.0242
1781765994217,6.8011,-1.6644,-2.6892,0.5986,-0.0631,-0.1973
1781765994237,5.5652,-5.3539,-6.2479,-0.0049,0.6723,-0.0506
1781765994257,1.7055,-6.8512,-6.4061,-0.2666,0.0904,-0.1595
1781765994277,-0.5597,-0.6322,-2.5505,-0.5401,-0.7293,-0.1364
1781765994297,1.833,1.6594,0.7588,-0.6642,-0.5738,-0.1765
1781765994316,4.6038,1.0191,1.7026,-0.5697,-0.3727,-0.4312
1781765994336,6.2843,0.7891,2.4437,-0.3083,-0.2568,-0.8219
1781765994357,5.0215,0.6434,0.8922,-0.0682,-0.1825,-1.1166
1781765994377,2.2206,0.1245,-1.0445,-0.0966,0.0771,-1.2097
1781765994396,-0.4824,-0.0144,-2.0595,-0.2273,0.3097,-1.0082
1781765994417,-2.5018,0.4775,-1.929,-0.3883,0.035,-0.6386
1781765994437,-3.2117,1.1878,-1.5247,-0.4791,-0.4219,-0.3333
1781765994456,-2.0397,0.998,-1.4727,-0.4931,-0.5545,-0.181
1781765994476,-0.9112,0.5622,-0.644,-0.4926,-0.1244,-0.1549
1781765994496,0.0948,0.0442,0.3582,-0.4417,0.1709,-0.2536
1781765994517,0.858,-0.2951,0.8791,-0.3581,0.0806,-0.3687
1781765994536,1.1272,-0.4027,0.5437,-0.3543,0.0051,-0.4357
1781765994556,0.6959,-0.6462,-0.592,-0.4579,0.12,-0.4312
1781765994577,0.2512,-0.5709,-0.7451,-0.6203,0.0417,-0.4191
1781765994596,0.279,-0.3068,0.098,-0.7755,-0.1988,-0.4347
1781765994617,0.6053,0.3003,1.3,-0.892,-0.4945,-0.4441
1781765994637,0.5985,0.8132,2.1426,-0.9733,-0.7047,-0.4684
1781765994657,-0.2743,0.7641,3.0935,-0.9937,-0.7274,-0.4187
1781765994676,-0.369,-0.127,3.552,-0.9229,-0.5731,-0.449
1781765994696,-0.8262,-0.3338,3.5527,-0.7877,-0.6328,-0.5806
1781765994717,-2.1183,0.698,2.1588,-0.6652,-0.9415,-0.6443
1781765994737,-3.6112,1.1925,2.4883,-0.6243,-0.639,-0.5669
1781765994756,-3.2548,1.0637,3.0825,-0.4999,-0.4605,-0.5823
1781765994777,-2.9373,0.2953,2.7226,-0.3439,-0.4524,-0.5868
1781765994797,-3.5241,-0.7103,1.354,-0.1366,-0.0013,-0.5665
1781765994816,-4.3893,-2.0233,-1.8077,-0.2504,0.2124,-0.4283
1781765994836,-2.7283,-1.6125,-3.3999,-0.3114,0.229,-0.1696
1781765994857,-0.1668,-2.0353,-6.6118,-0.2389,0.2287,0.0931
1781765994877,3.0167,-4.1796,-8.6095,-0.4416,0.0794,0.0521
1781765994896,4.0489,-5.3734,-6.1128,-0.8015,-0.1949,-0.3147
1781765994916,3.2865,-3.0468,-1.538,-0.9303,0.0226,-0.6173
1781765994937,1.2549,-0.1412,1.3078,-0.877,0.3436,-0.6772
1781765994957,-0.7475,1.9954,3.1293,-0.6806,0.721,-0.6026
1781765994976,-3.1504,4.0284,3.2921,-0.3961,1.0244,-0.4204
1781765994996,-5.3454,4.9453,2.1777,-0.2056,1.317,-0.0931
1781765995016,-6.0552,4.7552,0.9729,-0.2295,1.5406,0.3795
1781765995036,-5.4324,4.1349,-0.0462,-0.3142,1.656,0.7297
1781765995056,-4.3215,4.3989,0.2121,-0.1231,1.3482,0.9927
1781765995076,-2.7745,4.0891,0.5632,0.4216,0.7879,1.1928
1781765995096,-1.6226,2.0955,0.28,0.6991,-0.0762,1.3799
1781765995116,-1.0306,-0.4115,0.4402,0.7007,-0.8573,1.4274
1781765995136,-0.581,-1.9765,0.5877,0.522,-1.1617,1.4129
1781765995157,-0.5597,-2.0475,1.1586,0.4394,-1.2713,1.3696
1781765995177,-0.6041,-1.4205,1.5,0.4579,-1.336,1.1634
1781765995196,-1.4809,-0.2356,1.8309,0.6886,-1.0969,0.9804
1781765995216,-2.581,0.1792,3.0701,1.0789,-0.4391,0.8597
1781765995237,-3.4064,-0.0487,2.8577,1.5001,-0.0609,0.8693
1781765995257,-3.4557,-0.2038,1.9854,1.8001,0.0677,0.8993
1781765995276,-2.8347,-0.2426,0.5781,1.9509,0.1526,0.9147
1781765995296,-2.2419,-0.929,-1.3768,1.9593,-0.1384,0.9962
1781765995316,-1.2414,-4.0328,-2.8021,1.7246,-0.3296,1.0694
1781765995336,-0.1253,-5.6003,-2.5645,1.3577,-0.2503,0.989
1781765995357,1.4175,-4.0788,-2.0376,1.226,0.0161,0.8208
1781765995377,3.5682,-2.8191,-2.5812,1.0967,0.1496,0.6774
1781765995396,5.1891,-4.2675,-2.4342,0.9008,0.0391,0.5536
1781765995416,6.3433,-7.8637,-3.5045,0.7229,0.0171,0.4447
1781765995437,7.783,-4.9402,-5.4418,0.1127,0.133,0.334
1781765995457,8.0257,1.8722,-3.3895,-0.3908,-0.2309,0.2552
1781765995476,7.4521,3.3659,-0.331,-0.5906,-0.8542,-0.1417
1781765995496,6.9832,-0.5598,1.9455,-0.5561,-1.0326,-0.9079
1781765995516,5.1916,-3.2385,2.4807,-0.3979,-0.5859,-1.4187
1781765995536,3.077,-2.5604,0.3912,-0.3998,0.3757,-1.6103
1781765995556,1.4952,-0.6171,-2.0326,-0.4038,0.7356,-1.6493
1781765995577,-0.9942,-0.3556,-3.5371,-0.469,0.5953,-1.4624
1781765995597,-3.7649,0.5855,-2.792,-0.581,0.3464,-0.9736
1781765995616,-4.7419,1.8763,-0.9465,-0.6698,0.248,-0.4565
1781765995636,-4.0405,2.3207,0.4087,-0.633,0.1215,-0.2269
1781765995656,-1.9229,1.7228,0.6882,-0.4988,0.0855,0.0145
1781765995677,-0.2431,1.1559,0.5669,-0.3448,-0.0496,0.0673
1781765995697,0.6246,0.1435,0.8549,-0.2158,-0.4329,-0.0177
1781765995716,1.2018,-1.0124,1.0694,-0.0429,-0.8895,-0.0925
1781765995737,1.4974,-1.161,0.6003,-0.0265,-0.8307,-0.1548
1781765995757,1.3665,-0.5352,-0.2486,-0.2259,-0.2255,-0.2223
1781765995776,1.3665,-0.5352,-0.2486,-0.441,0.0714,-0.2692
1781765995796,0.7688,-0.2301,-0.4389,-0.5525,0.0411,-0.2811
1781765995816,0.3058,-0.1671,0.0068,-0.5821,-0.0735,-0.3322
1781765995837,0.185,-0.0888,0.7656,-0.5945,-0.2296,-0.3762
1781765995857,0.2086,0.0487,1.6859,-0.6367,-0.7633,-0.4278
1781765995876,0.6315,-0.058,2.2417,-0.6367,-0.7633,-0.4278
1781765995897,0.3041,0.1688,2.2435,-1.0497,-1.1823,-0.4453
1781765995917,-0.5729,0.2786,2.131,-1.0527,-0.3982,-0.5403
1781765995936,-1.6238,0.6362,2.6398,-0.745,-0.2397,-0.6396
1781765995957,-2.5942,0.8923,2.4725,-0.4783,-0.5553,-0.6152
1781765995977,-3.4684,1.1829,1.9545,-0.456,-0.7034,-0.4922
1781765995996,-3.3511,0.4115,1.8248,-0.3788,-0.2625,-0.3792
1781765996017,-2.7552,-0.1111,2.4266,-0.3582,0.1557,-0.3774
1781765996037,-2.2965,0.0927,0.3133,-0.3791,0.3884,-0.4167
1781765996056,-2.0484,-0.2646,-2.654,-0.335,0.5784,-0.2959
1781765996077,-0.7665,-1.6163,-5.6051,-0.335,0.5784,-0.2959
1781765996097,2.152,-3.1515,-6.3305,-0.4274,0.4277,-0.2698
1781765996116,2.8889,-3.8506,-5.2382,-0.785,0.0439,-0.3587
1781765996137,2.0959,-3.4977,-2.6282,-0.897,0.0967,-0.4843
1781765996157,2.6311,-2.1597,0.2149,-0.7404,0.6038,-0.6853
1781765996176,1.9594,-0.6053,2.0615,-0.4305,1.3994,-0.7866
1781765996196,-0.4561,1.312,2.301,-0.1972,1.6874,-0.7294
1781765996217,-2.2811,2.6878,1.4756,-0.1756,1.5543,-0.5123
1781765996236,-3.5977,4.054,0.6287,-0.155,1.224,-0.1568
1781765996256,-4.5158,4.6816,-0.315,-0.2261,0.7486,0.3583
1781765996276,-4.9337,4.5184,-1.5056,-0.234,0.3995,0.9101
1781765996296,-3.8397,3.5582,-1.3962,-0.0306,0.0401,1.288
1781765996317,-2.1989,2.3175,-0.1244,0.2338,-0.2831,1.4734
1781765996337,-1.2124,0.8072,1.1194,0.4579,-0.5389,1.5277
1781765996356,-0.7334,-0.7786,2.5636,0.4579,-0.5389,1.5277
1781765996377,-0.6032,-1.7041,2.8433,0.6318,-1.0798,1.1848
1781765996397,-0.8538,-1.2295,2.2608,0.6573,-1.006,1.0348
1781765996417,-2.0057,-0.4116,1.5599,0.6573,-1.006,1.0348
1781765996436,-2.6941,0.0159,1.5981,0.73,-0.9165,1.0016
1781765996457,-2.7461,0.1634,2.8906,1.0879,-0.6156,0.9639
1781765996477,-3.054,0.3271,2.9683,1.5092,-0.6224,0.9762
1781765996497,-3.3932,-0.2738,2.2429,1.9239,-0.3134,0.952
1781765996517,-3.3812,-0.34,1.0654,2.0807,0.1185,0.9164
1781765996536,-2.4675,-0.415,-0.2234,1.9953,0.4891,0.8685
1781765996557,-0.5315,-1.0598,-1.2621,1.7511,0.762,0.8128
1781765996577,1.5256,-3.0108,-1.8155,1.4091,0.63,0.6646
1781765996596,2.1523,-3.932,-1.8048,1.2636,0.3975,0.4058
1781765996616,1.9805,-3.7239,-2.2325,1.1127,0.4057,0.2508
1781765996637,2.6469,-2.1477,-2.754,0.8123,0.4057,0.2126
1781765996656,2.7018,-0.7327,-1.7303,0.565,0.3285,0.2129
1781765996677,1.7465,-0.8261,-0.0772,0.6141,0.7926,0.224
1781765996696,0.582,-1.9661,-1.8489,0.5846,1.0037,0.3155
1781765996716,-0.4196,-3.0263,-4.5755,0.1784,0.0326,0.5921
1781765996737,1.5113,-1.6055,-3.3629,-0.1412,-0.8011,0.7746
1781765996757,5.8293,-0.9107,-1.1946,-0.1754,-1.2127,0.4874
1781765996777,8.4655,-1.7195,-0.1954,-0.2177,-1.3672,-0.0927
1781765996796,9.302,-2.3315,0.9217,-0.1414,-1.2726,-0.7501
1781765996817,7.1942,-2.3139,-0.5596,-0.3738,-0.317,-1.1062
1781765996836,3.651,-1.4695,-1.5882,-0.7158,0.9636,-1.4069
1781765996857,0.5901,-1.1079,-1.1974,-0.7417,1.3585,-1.3898
1781765996877,-1.5929,-0.3252,-0.5036,-0.4807,0.9125,-1.128
1781765996896,-3.4174,0.8419,-0.3277,-0.329,0.1852,-0.7979
1781765996916,-4.0368,1.7149,-0.7104,-0.4467,-0.2242,-0.4467
1781765996937,-2.1058,1.2798,-0.8272,-0.5892,-0.2058,-0.2173
1781765996956,-0.1161,0.9144,-0.2666,-0.5854,-0.136,-0.1329
1781765996976,0.8505,0.4274,0.6053,-0.4454,-0.165,-0.1581
1781765996997,1.2485,0.0612,0.745,-0.2791,-0.1767,-0.2404
1781765997017,1.3559,-0.3979,0.3046,-0.2116,-0.1031,-0.272
1781765997036,1.409,-0.5569,-0.1031,-0.267,-0.1568,-0.285
1781765997057,1.1279,-0.4451,-0.1711,-0.365,-0.2549,-0.286
1781765997079,0.6738,-0.1862,0.1177,-0.4349,-0.3054,-0.3051
1781765997097,0.169,-0.1274,0.4841,-0.489,-0.3302,-0.3408
1781765997116,-0.1798,-0.2216,0.8634,-0.517,-0.3693,-0.3648
1781765997137,-0.4922,-0.1917,1.0967,-0.543,-0.5098,-0.3515
1781765997157,-0.6643,0.0734,1.2228,-0.5746,-0.6697,-0.3264
1781765997179,-0.6288,0.2393,1.1098,-0.6558,-0.8557,-0.3094
1781765997196,-0.4447,0.1873,1.0399,-0.7718,-0.8254,-0.3247
1781765997217,0.0769,0.0383,1.703,-0.8442,-0.8075,-0.3823
1781765997237,-0.2597,0.0363,1.926,-0.8751,-0.7615,-0.4177
1781765997256,-0.9875,0.0461,2.2428,-0.9307,-0.4905,-0.4305
1781765997277,-1.4279,0.5852,2.9553,-0.92,-0.4651,-0.5039
1781765997296,-1.398,0.9111,3.5313,-0.8348,-0.7553,-0.5657
1781765997317,-1.3353,0.543,3.2611,-0.7588,-0.9127,-0.6374
1781765997337,-2.4923,0.3907,3.288,-0.5388,-0.4988,-0.6693
1781765997356,-3.5792,0.7389,0.6159,-0.4116,-0.1494,-0.6905
1781765997377,-4.1908,0.5106,-1.8405,-0.4491,-0.0343,-0.6231
1781765997397,-4.1648,-1.2892,-5.1631,-0.5367,0.1559,-0.3408
1781765997416,-1.763,-3.9663,-7.2678,-0.6443,0.7186,0.0011
1781765997437,2.9739,-6.0939,-7.3155,-0.5653,1.0503,-0.0368
1781765997457,5.1546,-5.0612,-5.3149,-0.6064,0.889,-0.3429
1781765997479,4.1941,-2.3885,-1.8322,-0.6816,0.5229,-0.6597
1781765997497,1.9161,-0.2734,0.6414,-0.6023,0.7026,-0.8799
1781765997517,-0.6325,2.0639,1.1802,-0.4238,1.1855,-1.0124
1781765997537,-3.0449,3.9193,2.0798,-0.5497,1.2324,-0.8606
1781765997557,-4.103,4.7916,3.2576,-0.5538,0.9744,-0.4702
1781765997579,-3.9,5.1686,3.0675,-0.3775,0.6736,-0.0726
1781765997597,-4.0658,5.1024,1.6713,-0.1543,0.441,0.3261
1781765997617,-4.2195,4.0074,0.3679,-0.1084,0.2283,0.8081
1781765997636,-3.5242,3.039,1.2388,0.0267,0.1736,1.1743
1781765997657,-2.5634,1.2076,2.2654,0.4061,-0.0443,1.2789
1781765997677,-1.8297,-0.7735,2.4448,0.791,-0.2885,1.2351
1781765997696,-1.6808,-1.2423,1.6383,0.957,-0.4594,1.1189
1781765997717,-2.1444,-0.9727,0.9454,0.9314,-0.4432,1.071
1781765997737,-2.3869,-0.4571,0.7775,0.8363,-0.4802,1.1568
1781765997756,-2.1112,-0.0766,1.7133,0.8634,-0.7096,1.2416
1781765997777,-1.63,-0.15,2.7817,1.0842,-0.9675,1.2041
1781765997797,-2.0541,-0.3867,3.7944,1.5383,-0.5583,1.0496
1781765997816,-2.5584,-0.5053,3.8364,1.9834,0.2051,0.9527
1781765997837,-3.1881,0.0587,2.2248,2.2288,0.72,1.0424
1781765997857,-3.448,-1.2127,-1.1397,2.1291,0.3948,1.1501
1781765997879,-2.5325,-5.3533,-3.3984,1.7003,0.2777,1.029
1781765997896,0.0055,-6.8999,-2.039,1.3786,0.2892,0.7489
1781765997917,2.9882,-4.7133,-1.5667,1.4113,0.4637,0.6086
1781765997937,5.4459,-2.4852,-2.1169,1.3275,0.3179,0.3554
1781765997956,6.2855,-0.588,-2.4778,1.017,0.1903,0.1512
1781765997977,5.6511,0.8161,-2.616,0.5727,0.6535,0.1649
1781765997997,3.6188,-1.3302,-4.3689,0.2377,1.1467,0.1104
1781765998017,0.1645,-4.8058,-5.4895,0.0432,0.4574,0.3014
1781765998036,-0.8114,-0.8396,-1.7204,-0.0591,-0.6473,0.6228
1781765998057,2.2271,1.05,0.5466,-0.0335,-1.1633,0.6554
1781765998077,5.5077,-0.4627,-0.183,-0.167,-1.3545,0.2837
1781765998096,8.1141,-3.1116,0.2816,-0.0887,-1.2361,-0.4325
1781765998117,7.5995,-3.1216,-1.4048,-0.0225,-0.6024,-0.9279
1781765998136,7.5995,-3.1216,-1.4048,-0.4681,0.7661,-1.3831
1781765998157,5.1345,-1.6211,-3.5593,-0.9025,1.7173,-1.4834
1781765998177,-0.8046,-0.6283,-1.2274,-0.8239,1.7777,-1.2389
1781765998196,-0.8046,-0.6283,-1.2274,-0.8239,1.7777,-1.2389
1781765998217,-2.7826,0.7971,0.1679,-0.2951,0.0297,-0.5245
1781765998237,-3.6635,1.848,0.1205,-0.4199,-0.5323,-0.1595
1781765998256,-2.6905,1.4032,0.0652,-0.4532,-0.6329,-0.0296
1781765998277,-0.3466,0.7903,-0.0017,-0.334,-0.8262,-0.0558
1781765998296,1.0272,0.0747,0.6929,-0.334,-0.8262,-0.0558
1781765998316,1.7444,-0.6765,0.9314,-0.1396,-0.6933,-0.1648
1781765998337,1.5304,-0.1866,0.2676,-0.2935,-0.4503,-0.1873
1781765998357,0.4529,0.294,-0.2519,-0.3613,-0.4375,-0.121
1781765998376,-0.6185,0.1396,-0.3109,-0.3913,-0.5252,-0.0773
1781765998397,-1.1862,-0.0741,-0.0568,-0.4789,-0.5429,-0.0944
1781765998416,-0.9681,-0.4322,0.4796,-0.5678,-0.4568,-0.1351
1781765998437,-0.2919,-0.5048,1.0429,-0.6313,-0.3159,-0.2037
1781765998457,0.4474,-0.353,1.666,-0.6421,-0.4556,-0.2579
1781765998476,0.8594,-0.0976,1.8708,-0.638,-0.5449,-0.2812
1781765998497,0.4799,-0.0773,1.6028,-0.638,-0.5449,-0.2812
1781765998516,-0.1238,0.5101,1.5181,-0.8922,-0.93,-0.2941
1781765998536,-1.0248,0.9596,1.6898,-0.9365,-1.166,-0.2029
1781765998557,-1.3224,1.3665,2.8378,-0.8437,-1.3773,-0.1264
1781765998576,-1.0484,1.6042,3.6901,-0.694,-1.3101,-0.0913
1781765998597,-0.3229,0.9722,3.8032,-0.6219,-1.0401,-0.1738
1781765998617,-0.1424,0.2424,3.2139,-0.6122,-0.6576,-0.3506
1781765998636,-0.4881,-0.0373,2.2162,-0.6094,-0.5681,-0.5568
1781765998657,-1.7196,-0.2534,0.2498,-0.5523,-0.1091,-0.577
1781765998677,-4.0893,-0.7214,-1.0113,-0.3745,0.6811,-0.5226
1781765998697,-5.1815,-0.3236,-3.1202,-0.3745,0.6811,-0.5226
1781765998717,-4.3774,-1.2412,-4.4847,-0.1984,1.0522,-0.1483
1781765998737,-1.6671,-3.2977,-4.3252,-0.2295,0.7933,-0.0283
1781765998757,2.2424,-4.209,-4.5021,-0.2295,0.7933,-0.0283
1781765998777,4.1738,-3.7569,-4.237,-0.8698,0.295,-0.401
1781765998797,3.8676,-2.0368,-1.7047,-0.8698,0.295,-0.401
1781765998817,1.4318,-0.3492,-0.072,-0.7728,0.4929,-0.6117
1781765998837,-0.4893,1.5892,0.5736,-0.4982,0.7086,-0.7118
1781765998857,-1.5979,3.4517,0.7627,-0.2741,0.8263,-0.662
1781765998877,-1.7949,4.3802,1.2208,-0.0759,0.89,-0.5213
1781765998897,-1.8329,4.4937,2.0562,0.1327,0.8234,-0.3483
1781765998917,-1.9785,4.2127,2.4303,0.4059,0.7801,-0.1912
1781765998936,-3.0284,3.3283,1.478,0.5424,0.7477,0.0821
1781765998956,-4.4609,1.4898,0.1395,0.3285,0.4765,0.5305
1781765998977,-4.3669,-0.4262,0.3008,0.0934,-0.1338,1.0081
1781765998997,-3.0208,-1.3991,0.8615,0.0577,-0.5335,1.2828
1781765999017,-1.6185,-1.5948,0.9253,0.2274,-0.6009,1.3052
1781765999037,-0.9495,-0.9699,0.7029,0.484,-0.4998,1.1674
1781765999057,-1.2757,-0.0804,0.5634,0.677,-0.3178,1.0679
1781765999077,-1.5051,0.564,0.5403,0.6733,0.0124,1.0833
1781765999097,-1.4868,0.2217,1.1061,0.59,0.2072,1.0518
1781765999117,-1.3959,-0.2592,1.9245,0.7048,0.254,0.952
1781765999136,-1.9848,-0.1051,2.9253,1.0479,0.1044,0.9577
1781765999157,-2.177,0.0245,2.375,1.3732,0.1855,0.8754
1781765999176,-1.5714,0.3115,1.6919,1.5272,0.4734,0.7881
1781765999198,0.1379,-0.0158,1.2803,1.5164,0.7518,0.6757
1781765999217,1.1353,-0.5439,0.9064,1.515,0.7956,0.5496
1781765999236,1.1218,-1.285,0.0406,1.4721,0.5909,0.3924
1781765999257,0.2629,-2.7549,-1.1021,1.3592,0.5304,0.2704
1781765999276,-0.0205,-3.5595,-2.6707,1.1639,0.4853,0.1718
1781765999297,0.6838,-3.8491,-3.2161,0.9516,0.6093,0.119
1781765999315,2.2356,-2.4141,-2.2334,0.8422,0.7634,0.0811
1781765999337,3.1045,-1.3764,-1.167,0.7365,0.8222,0.0371
1781765999356,3.1972,-0.6341,-1.1895,0.4738,0.968,0.0576
1781765999377,2.5304,-1.2541,-2.2493,0.1826,0.9384,0.0747
1781765999398,2.0318,-2.4959,-3.3611,-0.0001,0.2171,0.2436
1781765999416,2.03,-2.2984,-1.8534,-0.1857,-0.6514,0.2719
1781765999437,3.3948,-0.7192,0.1813,-0.3304,-0.7511,0.1484
1781765999457,5.4737,1.0466,1.6988,-0.382,-0.4801,-0.117
1781765999477,6.2103,0.4784,1.8099,-0.2367,-0.3689,-0.452
1781765999498,5.3676,-1.5509,0.2838,-0.0469,-0.1748,-0.6697
1781765999517,3.3522,-1.9573,-1.4452,-0.1043,0.2199,-0.8157
1781765999536,0.7489,-0.9481,-1.7297,-0.2769,0.1616,-0.7702
1781765999557,-0.923,0.3227,-0.8155,-0.3734,-0.1133,-0.5904
1781765999576,-1.9321,0.8722,-0.0675,-0.3706,-0.4189,-0.4084
1781765999597,-1.9143,1.0464,-0.7659,-0.369,-0.6351,-0.2363
1781765999617,-0.6829,0.7571,-1.4897,-0.417,-0.5206,-0.1656
1781765999636,0.005,0.4138,-1.2078,-0.4203,-0.2848,-0.1898
1781765999657,0.1137,0.1317,-0.9219,-0.3694,-0.0482,-0.2134
1781765999677,0.2322,-0.195,-0.6991,-0.3503,0.1206,-0.2439
1781765999697,0.1908,-0.3341,-0.8769,-0.3835,0.2014,-0.2396
1781765999717,0.1002,-0.4863,-0.7397,-0.4314,0.2138,-0.2472
1781765999737,0.3413,-0.6533,-0.455,-0.4247,0.1496,-0.2543
1781765999756,0.6864,-0.8009,-0.2671,-0.467,0.129,-0.2515
1781765999777,1.1084,-0.5878,0.1441,-0.5891,0.1506,-0.2726
1781765999797,1.2852,-0.4614,0.5314,-0.7043,0.1225,-0.3352
1781765999816,1.1102,-0.291,1.0751,-0.7525,0.0054,-0.3992
1781765999836,0.6842,0.0159,1.5192,-0.7492,-0.3072,-0.4349
1781765999857,0.8265,0.5126,1.9459,-0.7443,-0.5334,-0.4236
1781765999876,0.5247,0.5316,2.2091,-0.7371,-0.6713,-0.4171
1781765999897,0.2559,0.1802,2.4542,-0.7858,-0.7893,-0.3657
1781765999916,-0.6009,0.2714,2.0512,-0.8083,-0.9056,-0.3504
1781765999936,-1.6231,0.3667,1.9764,-0.8354,-0.8536,-0.366
1781765999957,-2.5775,0.3094,2.8087,-0.7873,-0.7467,-0.3388
1781765999977,-3.3497,0.6176,3.3094,-0.6328,-0.5898,-0.2806
1781765999998,-3.3917,1.0692,3.1762,-0.5227,-0.433,-0.2027
1781766000017,-2.9246,1.148,3.3576,-0.4385,-0.241,-0.133
1781766000036,-1.9083,1.2574,3.1408,-0.2792,-0.0044,-0.0641
1781766000057,0.241,0.8347,1.8664,-0.2596,-0.2055,-0.1321
1781766000077,-1.897,2.1632,2.8985,-0.1172,-0.1031,-0.141
1781766000098,-1.807,1.755,2.1664,0.1775,0.1409,-0.0921
1781766000117,-3.508,1.0352,-0.4184,0.4015,0.2817,-0.0568
1781766000137,-3.5996,-2.1947,-3.8822,0.3788,0.0725,0.1213
1781766000157,-3.0009,-5.0085,-5.5871,0.3467,0.4274,0.4936
1781766000176,1.6004,-6.0054,-7.917,0.0356,0.015,0.5632
1781766000197,1.6004,-6.0054,-7.917,-0.3223,0.4272,0.1832
1781766000217,4.4779,-3.0607,-5.3661,-0.5158,0.8446,-0.3144
1781766000237,2.7899,-1.4371,-2.3379,-0.6808,0.6504,-0.6262
1781766000256,1.3695,-0.7363,-1.7906,-0.5154,0.7193,-0.7514
1781766000277,0.7352,1.3396,-0.8809,-0.3356,0.8113,-0.7037
1781766000297,0.7352,1.3396,-0.8809,-0.4642,0.5959,-0.5946
1781766000317,-0.4507,4.1313,0.5072,-0.5367,0.6167,-0.3345
1781766000336,-1.2114,4.0983,1.7478,-0.5,0.5153,-0.0367
1781766000356,-1.9766,3.5924,1.8837,-0.35,0.2065,0.2679
1781766000376,-1.904,2.3781,0.9013,-0.2889,-0.3104,0.4762
1781766000398,-1.904,2.3781,0.9013,-0.3224,-0.8179,0.6276
1781766000417,-3.0322,0.0135,0.2033,-0.2713,-1.1045,0.7873
1781766000437,-3.0584,-0.0987,0.9047,-0.0486,-1.1316,0.8887
1781766000456,-2.8971,0.1238,1.1948,0.2455,-1.057,0.8822
1781766000477,-2.5887,0.283,1.6557,0.6128,-0.8689,0.7447
1781766000499,-2.5887,0.283,1.6557,0.8942,-0.5929,0.6213
1781766000517,-2.9489,0.2162,1.5026,0.9911,-0.3569,0.5434
1781766000537,-3.0209,0.7503,1.866,1.1205,0.2275,0.4701
1781766000556,-3.0209,0.7503,1.866,1.2224,0.693,0.3832
1781766000577,-2.5268,0.9406,1.9458,1.3058,0.8766,0.3201
1781766000597,-1.4615,0.4169,1.432,1.3423,0.9186,0.2847
1781766000616,-1.4615,0.4169,1.432,1.5918,1.3574,0.2922
1781766000637,-2.2605,0.4942,2.2209,1.6833,0.9917,0.6171
1781766000657,-3.7616,0.3539,-0.272,1.3906,0.0198,0.7305
1781766000676,-0.3021,-1.4107,-1.8891,0.9556,-0.3009,0.5719
1781766000696,0.1134,-3.2587,-2.5525,0.5836,0.0349,0.5322
1781766000716,0.6354,-3.98,-1.7797,0.7412,0.1665,0.4338
1781766000737,1.5016,-2.0935,-0.9333,0.7632,0.579,0.2878
1781766000756,2.7112,-0.9801,-0.7632,0.8345,0.8182,0.1683
1781766000776,2.4243,0.1117,-0.3084,0.7362,0.9751,0.1423
1781766000797,2.4876,0.464,0.4921,0.6616,0.742,0.1207
1781766000816,3.107,0.6592,0.8082,0.6616,0.742,0.1207
1781766000837,2.9994,-1.6548,-0.7079,0.6428,-0.9248,0.3394
1781766000857,2.5032,-4.8269,-2.9803,0.1282,-0.8106,0.3468
1781766000876,1.457,-2.7867,-3.3731,-0.3663,-0.5403,0.3315
1781766000896,3.6044,-0.0378,-1.4275,-0.3918,-0.828,0.0635
1781766000916,5.8229,0.1465,0.3751,-0.1827,-1.316,-0.3425
1781766000936,6.6484,-1.1341,1.0048,-0.0204,-1.025,-0.7746
1781766000957,5.2908,-1.8447,-0.1647,-0.2153,-0.1022,-1.1009
1781766000976,2.5301,-1.9016,-1.7521,-0.5022,0.6035,-1.1543
1781766000997,0.3156,-1.3928,-2.6768,-0.6461,0.6579,-1.0351
1781766001017,-1.3695,-0.5211,-2.9593,-0.6835,0.436,-0.8296
1781766001036,-2.4436,0.035,-2.2992,-0.7014,0.3453,-0.5738
1781766001057,-2.7846,0.6254,-1.1794,-0.7083,0.5765,-0.3578
1781766001077,-1.7645,0.9644,-0.5598,-0.6752,0.5665,-0.2592
1781766001096,-0.5681,0.7899,-0.0598,-0.6169,0.446,-0.2214
1781766001117,0.1045,0.4048,0.2651,-0.553,0.3123,-0.2209
1781766001137,0.7658,-0.3223,0.6069,-0.5253,0.2221,-0.2742
1781766001156,1.4387,-0.6058,0.6098,-0.5414,0.1129,-0.356
1781766001177,1.9684,-0.7117,0.9383,-0.5926,0.0461,-0.4632
1781766001196,2.5575,-0.4073,1.3053,-0.5926,0.0461,-0.4632
1781766001217,2.5305,-0.0985,1.5852,-0.5919,-0.1963,-0.7058
1781766001237,2.0581,0.0444,1.3677,-0.6284,-0.5096,-0.7866
1781766001256,1.3773,-0.0013,1.1948,-0.6284,-0.5096,-0.7866
1781766001277,0.1184,-0.3756,1.4877,-0.6888,-0.8704,-0.7252
1781766001295,-1.2815,-0.6544,2.2127,-0.718,-1.0239,-0.4827
1781766001317,-2.8717,0.2564,3.3212,-0.6897,-1.0348,-0.2217
1781766001337,-3.5622,1.1024,3.5967,-0.6777,-1.0815,-0.1503
1781766001356,-3.6047,0.7401,4.214,-0.6939,-1.2276,-0.099
1781766001377,-2.5348,0.143,4.7249,-0.6417,-1.2403,-0.0731
1781766001396,-2.1192,-0.0217,4.5924,-0.4016,-0.7974,-0.15
1781766001417,-2.0063,0.3264,2.6717,-0.1876,-0.4326,-0.2529
1781766001437,-2.2841,0.8829,1.649,-0.0848,-0.3107,-0.29
1781766001456,-3.1433,1.7453,1.0612,0.0362,-0.0567,-0.2321
1781766001477,-3.9749,2.0804,-0.0339,0.1031,0.043,-0.1118
1781766001497,-4.6887,0.6948,-1.7982,0.1575,0.0976,0.0189
1781766001517,-5.1435,-2.1029,-4.1988,0.1468,0.2232,0.3461
1781766001536,1.0635,-4.2218,-5.2797,0.1437,0.1819,0.6012
1781766001557,11.0689,-4.2162,-3.9957,0.0391,1.9652,0.082
1781766001577,0.5206,-3.6419,-4.9643,-0.0835,3.0902,-0.2227
1781766001597,1.7861,-2.2782,-3.7657,-0.1602,0.7111,-0.5194
1781766001617,0.4101,-1.592,-2.4184,-0.3055,-0.382,-0.4974
1781766001636,0.215,0.0453,-1.154,-0.3582,-0.5129,-0.3952
1781766001657,0.1069,1.8479,-0.0387,-0.448,-0.061,-0.264
1781766001677,-0.0287,3.3005,0.5638,-0.4952,0.3283,-0.1591
1781766001697,-0.7168,4.1995,1.5746,-0.3735,0.2834,-0.0158
1781766001717,-1.519,4.2404,1.229,-0.1659,-0.0329,0.2641
1781766001736,-1.0185,3.6483,0.6736,0.0106,-0.1482,0.4522
1781766001757,-1.4791,2.9284,0.1687,0.1014,-0.3452,0.6251
1781766001777,-2.7041,1.6058,0.1867,0.1355,-0.6706,0.8368
1781766001796,-3.2928,0.0752,1.1519,0.2908,-1.0786,0.9718
1781766001817,-2.8591,-1.4274,2.3708,0.5597,-1.3089,0.9369
1781766001836,-1.0982,-1.3532,3.0046,0.861,-1.3248,0.763
1781766001857,0.2899,0.2956,2.7372,0.9861,-0.872,0.5224
1781766001876,-2.3887,0.9272,3.2401,1.0364,-0.0423,0.4173
1781766001896,-3.8125,0.5066,1.2483,1.0559,0.1676,0.498
1781766001917,-2.729,0.3414,0.3526,1.1068,0.1497,0.4889
1781766001937,-3.5853,0.034,-1.3579,1.0277,0.1021,0.4614
1781766001956,-3.514,0.0396,-0.2178,1.1128,0.1037,0.5219
1781766001977,-2.9756,0.6251,0.9101,1.341,0.4292,0.5037
1781766001997,-2.1778,0.6766,0.8828,1.4028,0.8503,0.4884
1781766002017,-1.8975,-0.7854,0.0991,1.2449,0.8424,0.5349
1781766002036,-1.8959,-3.2917,-1.0098,0.9414,0.3613,0.6271
1781766002057,-0.3603,-3.9964,-1.098,0.8528,0.0607,0.5658
1781766002077,2.194,-3.0502,-0.634,1.0298,0.186,0.4151
1781766002096,4.351,-1.3062,-0.6035,1.0803,0.6067,0.1611
1781766002116,4.5747,0.2651,-0.4358,0.9016,1.0558,-0.0123
1781766002137,3.9624,0.393,-0.579,0.6005,1.3428,-0.0317
1781766002157,2.4753,-1.8777,-2.3828,0.5214,0.9508,0.1261
1781766002176,0.0892,-4.5081,-3.5535,0.4342,-0.3092,0.3583
1781766002198,0.2703,-1.3684,-1.6544,0.2018,-0.7071,0.6054
1781766002217,3.3862,0.6378,0.1993,0.0146,-0.5734,0.5928
1781766002236,5.9463,0.1589,0.3703,-0.0647,-0.6897,0.195
1781766002257,7.7004,-2.9822,0.0205,-0.0113,-1.1228,-0.3736
1781766002277,7.1826,-3.959,-1.9454,0.0655,-0.6983,-0.8518
1781766002296,4.9292,-2.5662,-4.3971,-0.4174,0.6677,-1.3043
1781766002317,2.0402,-1.686,-3.7442,-0.9125,1.5042,-1.3799
1781766002337,0.0101,-0.0668,-1.8504,-0.9205,1.6967,-1.2461
1781766002357,-1.2272,0.8291,-1.0754,-0.6504,1.3328,-1.0432
1781766002377,-2.7245,0.7907,-0.8844,-0.492,0.504,-0.727
1781766002397,-2.905,0.7828,-1.2233,-0.5309,-0.0394,-0.4228
1781766002417,-1.2347,0.6053,-0.439,-0.6117,-0.1631,-0.1992
1781766002437,-0.1003,0.7463,2.6133,-0.3289,-0.4163,-0.1246
1781766002456,2.0114,-0.4025,-1.2812,-0.0933,-0.1799,-0.1849
1781766002477,2.874,-1.0431,-1.3174,-0.5651,-0.178,-0.3173
1781766002497,2.8005,-0.9793,-1.1667,-0.7497,0.0671,-0.5235
1781766002518,2.8005,-0.9793,-1.1667,-0.8518,-0.3022,-0.6475
1781766002537,0.7598,-0.5301,0.1493,-0.856,-0.3316,-0.6722
1781766002556,0.7502,0.0404,0.9335,-0.9453,-0.464,-0.688
1781766002577,0.5754,0.6336,2.1913,-0.9654,-0.4508,-0.7613
1781766002596,0.8058,1.0446,2.7899,-0.9276,-0.4393,-0.8277
1781766002617,0.4892,1.0473,3.3469,-0.7653,-0.3842,-0.8476
1781766002636,-0.3162,0.1887,3.8804,-0.6359,-0.3999,-0.758
1781766002657,-1.4034,-0.7976,3.7596,-0.4369,-0.9588,-0.5875
1781766002676,-2.9038,-0.4325,2.8212,-0.5304,-1.8403,-0.353
1781766002697,-4.4731,-0.2089,3.8293,-0.6165,-1.9917,-0.1623
1781766002717,-4.4731,-0.2089,3.8293,-0.4708,-1.4759,-0.1397
1781766002736,-5.2268,0.18,3.7774,-0.2801,-0.9571,-0.135
1781766002756,-4.631,1.0056,2.3585,-0.1461,-0.6429,-0.0532
1781766002777,-3.8712,1.6246,1.0992,-0.0012,-0.456,0.0418
1781766002797,-3.9308,1.8378,0.5431,0.1655,-0.1691,0.1495
1781766002816,-3.8813,1.8588,-0.166,0.3678,0.1201,0.2613
1781766002836,-3.4258,0.5832,-1.1214,0.5922,0.2838,0.3917
1781766002856,-2.2505,-2.159,-3.1952,0.663,0.3041,0.5614
1781766002876,0.2258,-4.0708,-5.0176,0.4234,0.1867,0.6938
1781766002897,1.9892,-4.9804,-6.0293,-0.0137,0.1097,0.4724
1781766002917,1.9892,-4.9804,-6.0293,-0.436,0.5003,0.2185
1781766002937,5.3544,-3.2431,-4.5551,-0.7041,1.034,-0.2104
1781766002956,5.3544,-3.2431,-4.5551,-0.7094,1.3035,-0.6173
1781766002977,2.0938,-0.8065,-1.4643,-0.5588,1.0715,-0.7233
1781766002997,2.0938,-0.8065,-1.4643,-0.4985,0.8941,-0.6041
1781766003017,1.4727,1.3391,-0.8331,-0.5133,1.1032,-0.509
1781766003036,-0.2144,4.0981,-0.0689,-0.5871,1.0384,-0.2012
1781766003057,-0.432,4.1307,0.8308,-0.4836,0.7097,-0.0772
1781766003077,-0.2704,4.2898,2.3125,-0.2663,0.2087,0.1997
1781766003096,-1.6928,3.6552,2.2645,-0.1269,-0.4988,0.5359
1781766003117,-4.4559,3.102,1.0123,-0.1874,-1.3089,0.8614
1781766003137,-3.07,1.167,0.9696,-0.1099,-1.5831,1.0806
1781766003156,-3.1836,0.2965,1.1737,0.1255,-1.7104,1.1632
1781766003177,-2.4457,0.2772,1.4852,0.4885,-1.6046,1.0496
1781766003196,-1.5396,-0.0579,1.4735,0.8406,-1.3557,0.8634
1781766003218,-0.9045,-0.3143,1.3311,0.8406,-1.3557,0.8634
1781766003237,-0.8788,-0.1151,1.0459,1.0964,-0.8456,0.5942
1781766003257,-1.2827,0.3078,0.8233,1.2018,-0.2084,0.4723
1781766003276,-1.8998,0.6793,1.6232,1.3539,0.4934,0.3865
1781766003297,-2.1802,0.3815,1.9699,1.435,0.726,0.2883
1781766003317,-2.5144,0.2644,1.6353,1.44,0.4248,0.3175
1781766003337,-3.3706,0.3961,0.8489,1.4758,0.2285,0.4189
1781766003357,-3.3569,0.8637,-0.0091,1.4247,0.1299,0.5407
1781766003376,-2.3358,0.2825,-1.3828,1.2175,-0.0608,0.5337
1781766003397,-0.2895,-1.9269,-1.8111,1.0104,-0.0314,0.386
1781766003417,0.0632,-2.5006,-1.3284,1.0104,-0.0314,0.386
1781766003437,0.5681,-2.8123,-1.8155,0.7467,0.4119,0.0937
1781766003457,1.2685,-2.4482,-1.8093,0.6475,0.5377,0.0499
1781766003476,1.9221,-1.9943,-1.8011,0.5171,0.8067,0.072
1781766003497,2.2046,-2.5547,-1.5223,0.4195,0.9461,0.0769
1781766003519,2.5304,-2.7397,-1.992,0.4195,0.9461,0.0769
1781766003537,2.5743,-3.041,-3.2874,-0.0831,-0.4892,0.3878
1781766003557,3.2661,-1.7655,-3.5832,-0.3526,-1.1578,0.3481
1781766003576,4.6916,-0.3951,-1.7464,-0.3526,-1.1578,0.3481
1781766003597,5.8777,-0.3862,0.1522,-0.3545,-1.1255,-0.2776
1781766003619,6.0407,-0.7123,2.1734,-0.3545,-1.1255,-0.2776
1781766003637,4.8115,-0.1484,2.6014,-0.1053,-0.5138,-0.7668
1781766003656,2.7859,-0.4727,0.922,-0.1053,-0.5138,-0.7668
1781766003677,0.6074,-0.7066,-0.4787,-0.1256,-0.0954,-0.8205
1781766003696,-1.6703,-0.2933,-1.8423,-0.1936,-0.0779,-0.7312
1781766003717,-3.1956,0.1779,-2.3885,-0.3611,-0.2886,-0.5841
1781766003737,-3.1803,0.4686,-1.8377,-0.5272,-0.2413,-0.4445
1781766003756,-1.5788,0.588,-1.3605,-0.6082,0.1259,-0.3465
1781766003777,-0.1733,0.5074,-0.8201,-0.5994,0.5,-0.344
1781766003797,0.5429,0.23,-0.1956,-0.5459,0.7479,-0.3935
1781766003818,1.0789,-0.0655,0.3727,-0.4308,0.6922,-0.4727
1781766003837,1.1468,-0.0482,0.5087,-0.3483,0.5738,-0.5279
1781766003857,0.8242,0.058,0.4153,-0.289,0.593,-0.5234
1781766003876,0.7389,-0.2547,0.1684,-0.3364,0.4989,-0.4737
1781766003897,0.7252,-0.5521,0.1446,-0.4302,0.1899,-0.4263
1781766003917,0.7077,-0.4304,0.6926,-0.5293,-0.0798,-0.4204
1781766003937,0.8504,0.0611,1.3763,-0.5709,-0.3145,-0.4193
1781766003956,0.5043,0.0894,1.7392,-0.5716,-0.4194,-0.4462
1781766003977,0.1952,-0.2506,2.0691,-0.5913,-0.5389,-0.4457
1781766003997,-0.3249,0.0075,2.3288,-0.6844,-0.6958,-0.4609
1781766004018,-0.7759,0.4899,2.3009,-0.757,-0.8932,-0.5001
1781766004037,-1.9184,0.4865,2.0847,-0.7392,-1.1072,-0.5023
1781766004056,-3.0937,0.6484,2.111,-0.659,-0.8696,-0.4302
1781766004077,-3.7802,1.0634,3.027,-0.4611,-0.4481,-0.3749
1781766004098,-3.4007,1.2568,3.3247,-0.2685,-0.4605,-0.3355
1781766004119,-2.6017,0.9597,3.0532,-0.2104,-0.7726,-0.2642
1781766004136,-1.9591,0.8865,3.1992,-0.0995,-0.7866,-0.209
1781766004157,-1.9543,0.9226,2.6927,0.1327,-0.5802,-0.137
1781766004176,-2.282,1.0309,1.8335,0.3589,-0.3905,0.0438
1781766004196,-2.211,1.4239,0.7666,0.5311,-0.2008,0.2543
1781766004216,-2.0411,0.4416,-1.1238,0.6211,-0.047,0.4139
1781766004236,-2.4167,-2.7066,-5.4216,0.431,-0.002,0.4934
1781766004257,-0.6121,-7.6927,-9.7564,-0.1542,0.1018,0.4484
1781766004277,3.2973,-9.7476,-10.1641,-0.6099,1.1161,0.0529
1781766004296,7.4855,-4.3531,-4.7061,-0.6534,1.5675,-0.6585
1781766004316,3.6711,-0.4919,-2.1885,-0.6997,1.0418,-0.9676
1781766004336,1.0603,0.968,-0.5992,-0.9542,0.4823,-0.8002
1781766004357,-0.6021,1.8154,1.9414,-1.026,0.3221,-0.5325
1781766004377,-1.8458,2.8948,3.7035,-0.6967,0.2437,-0.3057
1781766004396,-2.4483,3.7235,3.571,-0.2603,-0.0286,-0.0501
1781766004416,-2.6202,4.0553,2.1034,-0.0085,-0.2294,0.2079
1781766004436,-2.1018,3.7588,0.0929,-0.0192,-0.4201,0.4865
1781766004457,-1.5702,3.0292,-1.1436,-0.193,-0.5158,0.6646
1781766004477,-1.6133,1.6625,-1.5574,-0.2874,-0.4312,0.7527
1781766004497,-1.5086,0.8268,-1.119,-0.2432,-0.202,0.7585
1781766004520,-2.3091,0.0681,0.3529,-0.018,0.158,0.7572
1781766004537,-3.0338,-0.3327,1.3382,0.2378,0.0952,0.7872
1781766004556,-3.2333,0.0757,1.8237,0.394,-0.226,0.7846
1781766004577,-2.2911,0.726,3.0217,0.4968,-0.5449,0.8604
1781766004597,-0.669,0.1882,3.9424,0.7534,-0.7121,0.7588
1781766004616,-0.9827,-0.262,3.2534,0.928,-0.4742,0.6235
1781766004637,-0.7893,-0.0239,2.696,1.0404,-0.1974,0.5085
1781766004657,-1.4523,0.0748,1.602,1.2023,0.0992,0.409
1781766004677,-2.4198,0.098,-0.0014,1.3749,0.2735,0.4454
1781766004697,-2.655,0.3302,-0.456,1.6079,0.3709,0.5397
1781766004716,-2.3299,-1.1141,0.1085,1.6811,0.5066,0.6725
1781766004737,-2.1686,-2.2294,0.5243,1.5678,0.47,0.7115
1781766004757,-1.9705,-2.664,-0.7943,1.3087,0.0988,0.6809
1781766004776,1.1972,-1.58,-0.9222,1.1573,-0.0235,0.6253
1781766004797,4.4131,-0.7896,-0.5301,1.1506,-0.2577,0.4446
1781766004816,4.9906,-2.6002,-0.2451,1.1634,-0.0272,0.2262
1781766004836,4.0515,-7.5004,-1.9441,0.8381,0.9457,0.129
1781766004857,2.4243,-2.5746,-4.0929,0.49,1.2942,0.2282
1781766004877,0.8101,2.6032,-3.916,0.0219,0.4569,0.3673
1781766004896,2.3871,1.9827,-1.3916,-0.298,-0.1869,0.4104
1781766004917,4.7143,-1.6408,-0.85,-0.3882,-0.392,0.0359
1781766004937,7.2935,-4.2381,1.0788,-0.3218,-0.5788,-0.5338
1781766004956,7.4042,-1.9397,0.959,-0.0867,-0.5902,-0.9012
1781766004977,5.2755,-0.2078,-1.4453,-0.2703,0.5431,-1.1849
1781766004997,2.9929,-0.4477,-2.9846,-0.5674,1.5292,-1.2321
1781766005016,-0.7009,-0.2159,-2.3562,-0.6681,1.3552,-1.1496
1781766005037,-3.7596,0.442,-0.9107,-0.591,0.6973,-0.8041
1781766005056,-4.7316,0.6448,-0.2598,-0.51,0.1626,-0.4557
1781766005076,-3.0304,1.037,-0.4012,-0.5877,0.196,-0.2547
1781766005097,-0.3748,0.5648,0.0473,-0.5346,0.1621,-0.124
1781766005117,0.9368,-0.0414,0.4126,-0.4142,0.1811,-0.1323
1781766005137,0.9368,-0.0414,0.4126,-0.3104,0.2977,-0.2546
1781766005157,1.8031,-0.4464,0.634,-0.2981,0.4885,-0.2958
1781766005177,1.2594,-0.0738,0.5783,-0.3553,0.4247,-0.3295
1781766005197,0.8467,0.0239,0.816,-0.4328,0.1533,-0.2859
1781766005216,0.7323,0.0865,1.299,-0.4807,-0.2093,-0.2418
1781766005237,0.7323,0.0865,1.299,-0.5056,-0.4671,-0.2429
1781766005256,0.6663,0.0639,1.9666,-0.5228,-0.6564,-0.2882
1781766005277,0.467,0.042,2.0373,-0.5516,-0.5128,-0.3399
1781766005297,0.2899,0.3267,2.2381,-0.6269,-0.4985,-0.3871
1781766005317,-0.2519,0.6222,2.4962,-0.6788,-0.5364,-0.3117
1781766005337,-1.3525,1.0043,2.566,-0.6991,-0.5531,-0.2763
1781766005357,-2.5655,1.2304,2.6706,-0.7085,-0.4964,-0.2287
1781766005377,-3.0429,1.3604,3.1208,-0.5949,-0.5518,-0.2008
1781766005397,-2.9764,1.2147,2.5291,-0.5358,-0.7472,-0.1943
1781766005416,-2.9764,1.2147,2.5291,-0.457,-0.5755,-0.1694
1781766005437,-2.9734,0.7809,2.3887,-0.3465,-0.3975,-0.1301
1781766005457,-2.7925,-1.0741,-0.9949,-0.2995,-0.0534,-0.0547
1781766005476,-2.7925,-1.0741,-0.9949,-0.3127,0.154,-0.0039
1781766005497,-1.261,-2.0539,-3.2964,-0.2325,0.5536,-0.0598
1781766005517,0.6433,-3.4659,-4.8735,-0.0084,0.9105,-0.2153
1781766005538,2.5119,-4.9765,-5.6237,-0.0084,0.9105,-0.2153
1781766005557,2.3822,-4.7137,-6.3052,-0.383,0.7934,-0.4543
1781766005576,1.4384,-3.5781,-4.6751,-0.5873,0.4609,-0.4746
1781766005597,0.5309,-1.6831,-2.0084,-0.5652,0.1845,-0.4112
1781766005617,0.0566,0.2399,0.0057,-0.3985,0.1137,-0.3124
1781766005637,-0.4241,2.1468,0.9785,-0.3985,0.1137,-0.3124
1781766005657,-0.6993,3.6157,1.2196,-0.0989,0.0593,-0.0131
1781766005676,-0.9788,4.2214,0.889,-0.0975,0.0452,0.1455
1781766005697,-0.6945,4.4429,0.4534,-0.2102,0.0776,0.2554
1781766005717,-0.1967,3.9208,-0.1564,-0.2571,0.0769,0.3263
1781766005737,0.1715,2.6688,0.3036,-0.0976,-0.0498,0.368
1781766005757,0.0706,1.2314,0.7538,0.1357,-0.3254,0.4518
1781766005777,-0.7495,0.2034,0.7935,0.2306,-0.4935,0.5693
1781766005796,-2.0449,-0.1551,1.117,0.3165,-0.563,0.7137
1781766005817,-3.2842,0.1875,1.4079,0.4389,-0.5635,0.8231
1781766005837,-3.8181,0.3303,1.8262,0.4389,-0.5635,0.8231
1781766005857,-3.7246,0.1411,2.1721,0.7714,-0.5259,0.8427
1781766005876,-3.1964,-0.2161,2.0503,0.9439,-0.4409,0.7499
1781766005897,-2.5713,-0.4888,1.7527,1.0871,-0.149,0.644
1781766005917,-1.8172,0.1108,1.4829,1.1695,0.3765,0.5655
1781766005937,-1.258,0.7095,0.9801,1.1695,0.3765,0.5655
1781766005956,-0.9519,0.6019,0.3177,1.1163,0.9353,0.481
1781766005977,-0.6794,0.2299,-0.6482,1.0503,0.7938,0.4461
1781766005997,-0.3772,0.2347,-0.7121,1.0431,0.6894,0.4149
1781766006017,-0.1067,0.1419,-0.4293,1.045,0.6349,0.3902
1781766006037,0.2309,0.1723,-0.2225,1.045,0.6349,0.3902
1781766006057,0.5341,0.0024,-0.1004,0.9021,0.2547,0.308
1781766006077,0.5147,-0.0959,0.2573,0.9077,0.146,0.2176
1781766006098,0.1436,-0.4625,0.5261,0.9077,0.146,0.2176
1781766006116,-0.5461,-1.0224,-0.0179,0.8811,0.1641,0.0955
1781766006137,-0.9169,-1.2691,-0.8739,0.7919,0.2666,0.0569
1781766006156,0.3461,-1.0526,-0.4058,0.8842,0.4708,0.0212
1781766006177,1.8817,-0.9841,0.3264,1.0635,0.7022,-0.0856
1781766006196,2.2981,-0.8161,0.4068,1.0523,0.9274,-0.1932
1781766006217,1.3822,0.0229,-0.351,0.9174,0.9947,-0.1422
1781766006238,-0.6682,-2.1337,-2.0411,0.8314,0.4722,0.091
1781766006257,-1.7971,-6.6929,-4.3082,0.6026,-0.3291,0.4429
1781766006276,0.1018,-4.7075,-4.6567,0.1639,-0.4941,0.7353
1781766006296,4.0285,-0.1137,-2.4774,-0.216,-0.3604,0.8997
1781766006316,6.7853,1.1356,-0.8162,-0.3327,-0.5448,0.6361
1781766006337,9.191,-0.1355,0.6978,-0.2178,-1.1906,-0.0233
1781766006357,9.5996,-2.277,0.9389,0.0943,-1.8853,-0.6833
1781766006377,6.9188,-3.0728,-1.3389,-0.0129,-0.9912,-1.0528
1781766006397,3.4598,-2.1126,-3.2608,-0.4477,0.3319,-1.2486
1781766006416,0.0989,-1.209,-3.3028,-0.6633,0.3885,-1.1439
1781766006437,-1.7499,0.1181,-1.6535,-0.6348,-0.1957,-0.9396
1781766006456,-2.7762,0.5937,-0.003,-0.5016,-0.6929,-0.7018
1781766006477,-3.1369,0.8465,0.3473,-0.4191,-0.7369,-0.4513
1781766006497,-1.9238,0.4393,-0.5864,-0.4336,-0.6101,-0.2662
1781766006516,-0.1501,0.21,-0.3821,-0.3965,-0.4263,-0.2518
1781766006538,0.7616,-0.0943,0.1419,-0.3154,-0.2904,-0.2941
1781766006557,0.983,-0.225,0.3029,-0.2363,-0.2434,-0.3381
1781766006577,0.5841,-0.1652,0.11,-0.2057,-0.2371,-0.3364
1781766006595,-0.1526,-0.1772,-0.245,-0.205,-0.2513,-0.2925
1781766006616,-0.5646,-0.3255,-0.582,-0.2407,-0.3791,-0.2098
1781766006637,-0.4777,-0.3816,-0.758,-0.343,-0.5077,-0.121
1781766006656,-0.1834,-0.2634,-0.5254,-0.4951,-0.5773,-0.0924
1781766006677,0.2314,0.0167,0.1663,-0.5772,-0.5925,-0.1371
1781766006697,0.2933,0.1662,0.9006,-0.5796,-0.5095,-0.227
1781766006717,0.2736,0.1411,1.3395,-0.5816,-0.6157,-0.2937
1781766006738,0.2732,0.0719,1.4323,-0.6113,-0.7132,-0.3519
1781766006756,-0.2231,0.0787,1.7144,-0.6534,-0.8553,-0.385
1781766006777,-0.6344,0.1726,1.8066,-0.6579,-0.874,-0.4036
1781766006797,-1.3727,0.3685,1.6678,-0.6252,-0.9769,-0.3918
1781766006817,-2.0854,0.6137,1.4611,-0.5963,-0.9239,-0.3203
1781766006838,-2.2556,0.7176,1.6046,-0.5391,-0.8549,-0.2329
1781766006856,-1.7483,0.9482,2.0365,-0.4492,-0.8508,-0.159
1781766006877,-0.3915,0.6834,2.2712,-0.3741,-1.0325,-0.0907
1781766006897,0.2124,0.3536,2.128,-0.3318,-1.1956,-0.0826
1781766006917,0.0377,0.6652,1.6076,-0.3046,-1.3421,-0.1215
1781766006937,-0.6668,1.1645,1.4096,-0.2253,-1.4718,-0.1834
1781766006956,-1.4772,1.4608,1.4863,-0.0864,-1.4878,-0.1973
1781766006977,-2.0125,1.2008,1.299,0.11,-1.4324,-0.1506
1781766006996,-2.1887,0.1794,-0.269,0.2101,-1.523,-0.0928
1781766007017,-2.4808,-1.4874,-2.0057,0.2278,-1.4159,0.0266
1781766007039,-2.0906,-3.3582,-4.9029,0.0715,-1.1584,0.0579
1781766007057,-0.5173,-5.7724,-8.0817,-0.3985,-0.8975,-0.0113
1781766007076,2.0633,-7.3944,-8.6,-0.9294,-0.4711,-0.2488
1781766007097,4.1206,-5.9237,-6.1699,-1.0394,-0.2851,-0.5544
1781766007117,4.0546,-2.7894,-4.492,-0.9181,-0.1679,-0.7486
1781766007139,3.5848,-0.5767,-3.3225,-0.9049,-0.0738,-0.8173
1781766007156,3.1049,1.1278,-2.1738,-1.1378,-0.4841,-0.8161
1781766007176,2.4808,2.3204,0.1019,-1.3663,-0.9356,-0.8166
1781766007197,1.8618,3.217,2.3578,-1.3408,-1.0421,-0.8448
1781766007217,0.7623,4.1372,4.7595,-1.0609,-1.1577,-0.8682
1781766007238,-0.8452,4.2528,5.7637,-0.4809,-1.6635,-0.7396
1781766007256,-2.0822,4.3564,5.0702,0.0623,-2.1705,-0.5631
1781766007277,-3.1249,3.6929,3.361,0.3111,-2.3745,-0.3296
1781766007296,-4.1689,2.7307,1.4733,0.2685,-2.4767,-0.054
1781766007316,-4.3029,1.7593,1.3214,0.2246,-2.5101,0.1599
1781766007337,-3.7168,0.7074,2.2345,0.4346,-2.5558,0.2463
1781766007356,-3.2732,0.0137,2.6224,0.7834,-2.4044,0.2149
1781766007377,-3.5382,0.1379,2.3563,1.0361,-2.248,0.1994
1781766007397,-4.4508,0.0243,1.993,1.1194,-2.2642,0.2735
1781766007416,-5.0789,-0.3152,1.4523,1.1225,-2.3512,0.3617
1781766007437,-5.9141,-0.3472,2.1093,1.1518,-2.4053,0.4602
1781766007456,-6.5618,0.2118,3.1247,1.4498,-2.0638,0.5316
1781766007476,-7.2438,0.2876,2.4835,1.8074,-1.629,0.6594
1781766007496,-7.5211,-0.8529,0.3812,1.9564,-1.2377,0.8607
1781766007517,-7.6748,-3.0919,-2.405,1.7069,-0.9847,1.1253
1781766007540,-7.6748,-3.0919,-2.405,1.3554,-1.3126,1.1096
1781766007557,-0.2578,-3.6848,-2.0115,1.6324,-1.0286,0.6849
1781766007576,2.5529,-0.2214,-1.2622,1.712,-0.0341,0.5066
1781766007596,3.7123,0.8206,-1.6628,1.1981,0.5662,0.3999
1781766007617,4.4029,-5.9453,-3.0918,0.8464,0.8539,0.1652
1781766007639,4.4029,-5.9453,-3.0918,0.693,0.0062,-0.079
1781766007657,6.4425,-1.1036,-11.1203,-0.6859,-1.1379,-0.2545
1781766007677,3.0358,2.1722,-1.4817,-0.9812,-1.2656,-0.5485
1781766007696,1.6991,3.6341,1.6558,-0.9754,-0.5007,-0.5486
1781766007717,1.9438,2.8379,4.5553,-0.6534,-0.4906,-0.6047
1781766007737,1.7376,1.3923,5.2114,0.1371,-0.6215,-0.6039
1781766007757,1.0903,-0.0854,1.6092,0.7199,-0.2511,-0.5666
1781766007777,-0.941,0.4251,-1.5897,0.7959,-0.6023,-0.4529
1781766007796,-3.7278,1.1086,-4.3631,0.266,-0.7918,-0.081
1781766007817,-2.1983,0.3764,-3.4423,-0.2577,-0.9016,0.3208
1781766007837,1.3439,-0.9672,-2.4421,-0.367,-0.8624,0.3477
1781766007856,1.3439,-0.9672,-2.4421,-0.3569,-1.0304,0.1561
1781766007877,4.1697,-0.9208,-1.6128,-0.2003,-1.2542,-0.2032
1781766007897,5.3373,-0.6144,-0.339,-0.3613,-0.7463,-0.4076
1781766007917,3.1428,-0.5478,-0.8473,-0.6504,-0.5503,-0.3165
1781766007939,0.5115,-0.2062,-0.609,-0.6958,-1.0949,-0.174
1781766007957,-0.9456,-0.1048,-0.3138,-0.6403,-1.8642,-0.0887
1781766007976,-1.6553,-0.0133,0.2769,-0.59,-2.311,0.1029
1781766007997,-2.0654,0.1005,1.2806,-0.4047,-2.1702,0.0871
1781766008017,-1.0356,0.5088,2.4645,-0.1296,-1.8681,-0.0198
1781766008040,0.5744,1.4911,3.3414,0.0448,-1.6675,-0.165
1781766008057,1.0611,0.426,2.2424,-0.3166,-1.3873,-0.2255
1781766008077,-0.6012,-2.1361,-0.6363,-0.8785,-1.6226,-0.1447
1781766008097,-2.0335,-1.9766,-1.2058,-1.0906,-1.8964,-0.2534
1781766008117,-2.4539,0.4777,1.0446,-1.0664,-1.614,-0.2289
1781766008136,-3.4847,1.2683,3.0478,-0.9148,-1.1962,-0.2249
1781766008156,-3.8071,2.003,3.7333,-0.9148,-1.1962,-0.2249
1781766008177,-3.0863,1.8707,3.5829,-0.6095,-0.6459,-0.2565
1781766008196,-2.0999,1.2561,3.1473,-0.5115,-0.2471,-0.3595
1781766008217,-1.3816,-0.4521,2.7368,-0.4471,-0.2036,-0.5786
1781766008237,-0.1312,-1.3156,2.1536,-0.4497,-0.501,-0.7918
1781766008257,-0.0476,-1.7227,1.1199,-0.5165,-0.9366,-0.8886
1781766008277,-1.1947,-2.2245,0.3469,-0.5882,-1.0796,-0.7422
1781766008296,-3.3642,-2.823,-0.1398,-0.5529,-0.7282,-0.4649
1781766008317,-4.0962,-1.9195,-0.8725,-0.4356,-0.2629,-0.1935
1781766008336,-3.6021,-1.49,-2.2976,-0.2984,0.2143,-0.0253
1781766008357,-2.7632,-1.7897,-3.6151,-0.1527,0.335,0.1215
1781766008377,-0.6118,-2.1392,-4.8973,-0.1624,0.3071,0.1989
1781766008396,1.8357,-1.8184,-5.5528,-0.1624,0.3071,0.1989
1781766008417,4.1189,-1.8044,-3.6854,-0.4106,0.1252,-0.1088
1781766008437,4.7948,-0.9501,-0.9562,-0.5568,0.0193,-0.2746
1781766008457,3.0456,0.7022,1.0667,-0.5568,0.0193,-0.2746
1781766008477,0.5351,2.1851,2.3758,-0.2275,-0.0077,-0.1277
1781766008497,-1.4683,2.9439,2.7262,0.0163,-0.3057,0.0268
1781766008517,-2.7274,3.854,2.3136,0.0163,-0.3057,0.0268
1781766008537,-3.2896,4.2838,1.2622,0.1678,-0.582,0.2727
1781766008557,-3.2257,4.2514,-0.1239,0.1706,-0.793,0.5605
1781766008577,-2.6354,3.8777,-0.9295,0.0889,-1.0272,1.121
1781766008597,-1.8032,3.1024,-0.2569,0.0889,-1.0272,1.121
1781766008617,-0.8907,1.9851,1.0775,0.3412,-1.1258,1.2443
1781766008636,-0.3298,-0.1569,2.1158,0.7116,-1.4081,1.1645
1781766008656,-0.3106,-2.3407,2.6329,0.8838,-1.8013,0.9774
1781766008676,-0.2716,-1.3721,2.809,0.8782,-2.242,0.7666
1781766008697,-1.8255,0.1718,3.2121,0.9862,-1.939,0.6797
1781766008716,-2.5783,0.6166,3.1825,1.1339,-1.3208,0.6265
1781766008737,-3.0644,-0.2646,2.3102,1.3115,-0.8208,0.5807
1781766008757,-4.1556,-0.7088,1.1087,1.5322,-0.4275,0.5539
1781766008776,-5.2658,-1.2616,-0.378,1.612,-0.1178,0.659
1781766008797,-4.8331,-1.8578,-1.2117,1.5876,0.0116,0.8122
1781766008817,-3.3898,-2.9973,-1.4393,1.4903,0.0773,0.8096
1781766008836,-2.5985,-2.4321,-1.9796,1.1933,0.0016,0.828
1781766008856,-0.7135,-1.182,-2.7608,0.8243,-0.2579,0.7972
1781766008877,1.4052,-1.6679,-1.8003,0.6827,-0.2638,0.718
1781766008897,2.4062,-5.5216,-2.0721,0.7777,-0.0518,0.6624
1781766008917,4.0847,-5.387,-3.8254,0.6016,0.4392,0.6814
1781766008937,6.3168,-0.8817,-4.8056,0.2002,0.5601,0.7317
1781766008957,7.3027,2.1935,-2.9416,-0.0275,-0.2535,0.6431
1781766008976,7.8926,3.1747,-1.0627,-0.2473,-1.2815,0.3584
1781766008997,8.6473,0.8529,0.3942,-0.3179,-2.0728,-0.1362
1781766009017,7.2329,-3.8165,-0.6349,-0.19,-2.2072,-0.6864
1781766009037,3.3403,-4.7959,-2.646,-0.3038,-1.3728,-1.1394
1781766009057,0.1404,-2.9363,-4.4771,-0.7453,-0.3374,-1.1303
1781766009076,-1.5803,-0.943,-3.4465,-1.0753,0.302,-0.8077
1781766009097,-2.4592,0.2924,-0.8205,-0.9453,0.5092,-0.5475
1781766009116,-2.8946,1.0824,0.7124,-0.7421,0.392,-0.4104
1781766009137,-2.3841,1.3752,1.4049,-0.6391,-0.2643,-0.1612
1781766009157,0.0729,1.3108,1.7964,-0.4941,-0.938,0.0214
1781766009177,1.6838,0.7634,1.7186,-0.3602,-1.5785,-0.0872
1781766009197,2.2981,-0.2586,1.2958,-0.2266,-1.8154,-0.1523
1781766009217,2.593,-0.8007,0.6232,-0.1741,-1.304,-0.2292
1781766009237,1.3081,-0.8943,-0.2648,-0.3338,-0.5655,-0.3989
1781766009257,-0.1921,-0.5993,-0.2698,-0.5079,-0.4568,-0.4062
1781766009276,-1.7828,0.0652,0.2503,-0.5825,-0.7958,-0.2868
1781766009297,-2.2411,0.6444,1.3861,-0.6339,-1.2556,-0.1648
1781766009317,-1.6076,1.0525,2.4999,-0.5302,-1.5786,-0.1094
1781766009337,-0.9757,0.9132,2.4742,-0.3544,-1.5749,-0.1129
1781766009357,-1.2498,0.0022,1.4379,-0.3303,-1.1187,-0.1532
1781766009376,-1.8778,0.0119,0.3834,-0.4461,-0.4925,-0.2055
1781766009397,-2.2812,0.3934,0.3603,-0.4597,-0.3901,-0.1853
1781766009417,-2.0782,0.5084,0.526,-0.4228,-0.489,-0.1087
1781766009436,-1.5138,0.7078,0.7231,-0.4394,-0.5761,-0.0381
1781766009458,-0.7476,0.7766,1.4438,-0.4117,-0.4855,-0.0274
1781766009477,-0.0787,0.3533,1.3621,-0.3708,-0.5337,-0.0617
1781766009496,0.6663,0.0768,1.0409,-0.3786,-0.7422,-0.096
1781766009517,1.1652,-0.0049,0.8591,-0.4318,-1.032,-0.1725
1781766009537,0.7182,-0.1336,0.7612,-0.4894,-1.2503,-0.3095
1781766009557,-0.8457,-0.526,0.5517,-0.4521,-1.2603,-0.4302
1781766009577,-2.3585,-0.8017,-0.1591,-0.28,-1.0438,-0.401
1781766009596,-2.4871,-1.1725,-1.9816,-0.1037,-0.7125,-0.3173
1781766009617,-1.2658,-1.8643,-3.4963,-0.0836,-0.4677,-0.1698
1781766009637,0.6956,-2.8699,-3.985,-0.2347,-0.4987,-0.0728
1781766009658,2.3424,-3.2576,-3.5109,-0.4501,-0.5133,-0.1162
1781766009677,2.5455,-2.9246,-2.481,-0.6302,-0.5248,-0.291
1781766009696,2.1213,-1.8587,-1.6995,-0.6574,-0.5091,-0.4617
1781766009717,1.8101,-1.1157,-1.889,-0.5852,-0.3864,-0.6214
1781766009737,1.4284,-0.6056,-2.2348,-0.5675,-0.3174,-0.6884
1781766009758,1.0968,0.4987,-1.375,-0.667,-0.4484,-0.6474
1781766009777,0.6642,1.8368,0.1954,-0.7308,-0.5067,-0.5588
1781766009796,0.1611,2.8627,1.26,-0.7372,-0.4543,-0.4616
1781766009817,-0.4784,3.1997,2.2392,-0.7149,-0.3385,-0.4179
1781766009837,-1.6386,3.1244,3.3956,-0.4952,-0.5126,-0.326
1781766009857,-1.6386,3.1244,3.3956,-0.196,-0.7693,-0.0674
1781766009877,-4.1662,2.1536,2.2638,-0.0561,-1.0269,0.1625
1781766009897,-4.9314,1.3991,1.8119,0.0004,-1.3961,0.3922
1781766009917,-4.0366,1.1308,2.0144,0.1356,-1.7038,0.6386
1781766009937,-2.5653,0.7207,2.3841,0.3688,-1.8562,0.6854
1781766009958,-2.5653,0.7207,2.3841,0.5998,-1.8042,0.6457
1781766009976,-2.0571,0.3559,1.5882,0.7034,-1.7062,0.6043
1781766009997,-2.4075,0.3148,1.5686,0.8044,-1.6511,0.558
1781766010017,-3.354,0.5737,2.0057,0.9092,-1.5091,0.5696
1781766010036,-4.0976,0.2121,2.5792,1.2082,-1.3346,0.6084
1781766010058,-4.0976,0.2121,2.5792,1.549,-0.9836,0.6857
1781766010076,-4.0663,0.2355,2.3432,1.8132,-0.2228,0.8149
1781766010097,-3.9282,-1.6634,1.5253,1.7493,0.098,0.8937
1781766010117,-4.1322,-4.4242,-1.1364,1.4777,-0.3459,0.9817
1781766010137,-2.7147,-5.4692,-4.2341,1.3571,-0.7581,0.9381
1781766010158,-2.7147,-5.4692,-4.2341,1.0419,-0.4127,0.6716
1781766010176,4.7794,-1.3714,-3.339,0.6533,-0.1584,0.4788
1781766010197,5.8841,-0.4323,-2.302,0.4865,0.1721,0.2296
1781766010217,5.2755,-2.362,-2.6042,0.0506,1.0771,0.0291
1781766010237,5.1459,-4.4623,-3.1617,-0.1517,1.0683,-0.1068
1781766010259,5.1459,-4.4623,-3.1617,-0.243,-0.1043,-0.1815
1781766010277,5.3533,0.3362,-0.851,-0.4496,-0.8455,-0.4338
1781766010296,5.3533,0.3362,-0.851,-0.6028,-0.7578,-0.69
1781766010317,5.1416,-0.0583,0.8063,-0.5754,-0.3555,-0.7442
1781766010337,4.468,-0.6974,1.592,-0.4643,-0.0719,-0.8355
1781766010358,2.4235,-0.334,1.3149,-0.3372,-0.041,-0.7273
1781766010376,0.3936,0.2564,1.1128,-0.1462,-0.3008,-0.5616
1781766010397,-1.5409,1.1555,0.9103,-0.0085,-0.7333,-0.3593
1781766010417,-3.3185,1.2681,0.4901,-0.0818,-0.805,-0.1243
1781766010436,-4.2536,1.1806,-0.1507,-0.2601,-0.7259,0.0565
1781766010457,-2.8025,0.5154,-0.6969,-0.3221,-0.4317,0.0589
1781766010475,-0.8901,0.2213,-0.6718,-0.2661,-0.1738,-0.068
1781766010497,0.5415,-0.0014,-0.4813,-0.1929,-0.0598,-0.271
1781766010517,1.3918,-0.3243,-0.2906,-0.2593,0.2739,-0.4651
1781766010536,1.2746,-0.8261,-0.5056,-0.4563,0.56,-0.588
1781766010557,0.4518,-0.7002,-0.2098,-0.5857,0.682,-0.633
1781766010576,-0.1475,-0.2266,0.5279,-0.5978,0.6065,-0.5895
1781766010596,-0.5235,0.2874,1.294,-0.533,0.4428,-0.4866
1781766010617,-0.7479,0.6364,2.0487,-0.454,0.2608,-0.3783
1781766010637,-1.1758,0.7171,2.4662,-0.4057,-0.0142,-0.306
1781766010658,-0.9098,0.4828,2.627,-0.4057,-0.0142,-0.306
1781766010676,-0.6565,0.0874,2.6903,-0.3972,-0.7888,-0.2165
1781766010697,-0.55,-0.022,2.7663,-0.4492,-0.7953,-0.262
1781766010717,-0.5753,-0.0664,2.6607,-0.498,-0.5919,-0.3567
1781766010736,-1.1501,-0.1009,2.568,-0.4974,-0.3086,-0.4215
1781766010757,-2.3933,0.3082,2.3345,-0.4614,-0.0667,-0.3985
1781766010776,-4.1426,0.8945,2.1069,-0.3743,-0.0317,-0.3294
1781766010797,-5.4614,1.7047,1.9923,-0.1988,0.0285,-0.1972
1781766010816,-5.6645,2.3241,2.0696,0.1103,0.2776,0.1086
1781766010836,-3.2487,1.4721,2.0327,0.1103,0.2776,0.1086
1781766010857,0.3759,-0.5269,1.3339,0.1111,0.389,0.2492
1781766010876,2.8137,-1.8237,0.5809,-0.0693,0.3035,0.1432
1781766010897,3.4129,-1.9482,-1.01,-0.1378,0.3357,0.0007
1781766010917,2.7391,-2.0384,-2.7856,-0.0734,0.3024,-0.2198
1781766010936,0.6572,-4.8925,-4.5985,-0.0734,0.3024,-0.2198
1781766010957,0.5799,-7.2126,-5.794,0.0511,0.2439,-0.3094
1781766010977,2.7507,-4.8504,-6.0625,-0.3449,0.7667,-0.411
1781766010997,2.9837,-2.1204,-4.1919,-0.3449,0.7667,-0.411
1781766011017,2.2651,0.5298,-1.7259,-0.5774,0.7575,-0.2525
1781766011037,1.2709,2.3687,-0.0683,-0.7682,0.6917,-0.0136
1781766011057,0.7021,3.3982,1.0091,-0.818,0.7044,0.1139
1781766011076,-0.2745,3.9231,1.9876,-0.789,0.6033,0.1615
1781766011097,-1.2665,4.2359,3.8137,-0.4665,0.45,0.2203
1781766011117,-1.4921,4.2205,3.9145,0.0883,-0.1408,0.3104
1781766011136,-1.5827,3.6102,2.5185,0.4568,-0.763,0.4678
1781766011157,-1.9802,2.5837,0.7282,0.4941,-1.0337,0.6458
1781766011177,-2.7008,1.3996,-0.5459,0.2578,-1.051,0.8592
1781766011196,-3.0916,0.558,-0.5296,0.0025,-1.0337,1.0708
1781766011217,-2.809,-0.301,0.1232,-0.0988,-1.2641,1.2079
1781766011237,-2.1438,-0.9682,1.1234,0.0629,-1.5081,1.1733
1781766011256,-1.4509,-0.8282,2.5372,0.3978,-1.5644,0.9711
1781766011277,-1.5459,-0.1269,4.1717,0.8329,-1.0576,0.7265
1781766011297,-1.7648,-0.0431,4.4917,1.1637,-0.248,0.6171
1781766011316,-2.0818,0.1195,3.4735,1.3026,0.1619,0.5561
1781766011336,-2.8231,0.1308,1.9116,1.3441,0.6064,0.5539
1781766011357,-2.6518,-0.0029,0.6302,1.3993,0.6693,0.6219
1781766011377,-2.2169,-0.4125,-0.0725,1.432,0.4862,0.7082
1781766011397,-1.5455,-1.1152,-0.3944,1.3556,0.156,0.7863
1781766011416,-1.0479,-2.1811,-0.7077,1.2592,-0.0407,0.7805
1781766011437,-0.0673,-2.4155,-1.2002,1.0731,0.0438,0.6712
1781766011457,1.2945,-2.1686,-0.8106,0.8618,0.1384,0.5302
1781766011477,2.8404,-0.6565,0.1584,0.7861,0.333,0.4317
1781766011497,3.6093,0.0198,1.3917,0.8661,0.6484,0.3356
1781766011517,3.3647,-2.5762,0.745,0.9281,1.0328,0.2987
1781766011536,2.2121,-6.6943,-2.7362,0.7112,0.1393,0.5739
1781766011557,1.2409,-2.4759,-7.8486,0.1671,-1.2123,0.9391
1781766011577,5.138,-0.867,-6.7063,-0.6142,-1.3528,0.9203
1781766011596,9.2525,-1.8445,-2.1191,-0.7291,-1.2609,0.1944
1781766011617,9.8763,-3.3005,-0.2693,-0.6248,-1.2126,-0.7045
1781766011637,8.5489,-2.9907,0.2056,-0.6686,-0.8684,-1.1376
1781766011656,4.7765,-1.3543,-0.7359,-1.0025,0.5863,-1.3274
1781766011677,2.0041,-1.0183,-0.8058,-1.1368,1.51,-1.3355
1781766011697,-0.5867,-0.7692,-0.1456,-0.9488,1.0418,-1.2247
1781766011716,-3.615,0.3985,0.6301,-0.6664,-0.1934,-0.8761
1781766011737,-4.6246,1.7067,0.2619,-0.6753,-0.991,-0.5106
1781766011757,-2.4413,1.6149,-0.3642,-0.8838,-0.8387,-0.1842
1781766011776,-0.0977,0.5444,0.3508,-0.8982,-0.5523,-0.1349
1781766011797,0.8711,-0.2133,1.226,-0.72,-0.4104,-0.2343
1781766011817,1.203,-0.5873,1.4401,-0.5436,-0.2675,-0.4126
1781766011837,1.0156,-0.3744,0.9902,-0.6455,0.1669,-0.5615
1781766011857,0.321,0.2122,0.6825,-0.8269,0.5744,-0.6402
1781766011877,-0.1649,0.498,0.902,-0.823,0.7718,-0.6395
1781766011897,0.0349,0.4533,1.6824,-0.7918,0.7118,-0.673
1781766011917,0.4091,0.1287,2.9507,-0.7709,0.4654,-0.6459
1781766011937,0.412,-0.0393,3.597,-0.6733,0.2006,-0.6279
1781766011957,-0.296,-0.0463,3.3795,-0.5715,0.1497,-0.5596
1781766011977,-0.9499,0.2281,3.321,-0.462,-0.2308,-0.4284
1781766011997,-1.7121,0.5565,3.4507,-0.3981,-0.5779,-0.2884
