timestamp_ms,acc_x,acc_y,acc_z,gyro_x,gyro_y,gyro_z
1781766559686,0.0,0.0,0.0,1.7917,3.6634,-1.9309
1781766559726,-6.4432,-1.1666,-0.3463,1.7917,3.6634,-1.9309
1781766559767,1.4867,-0.1201,-0.2835,1.9994,0.9303,-0.9071
1781766559806,-0.6491,-0.3203,0.5915,2.4068,0.774,-0.3946
1781766559846,1.3272,1.985,-9.4463,-1.4502,-0.6206,-0.4893
1781766559886,-1.2575,-0.6468,3.4916,-0.1594,0.3244,0.6976
1781766559927,1.5752,-1.3358,1.686,-0.1729,0.0568,-0.1075
1781766559966,-0.5378,0.7011,0.61,-0.5095,-0.0574,0.8027
1781766560006,2.4428,-3.7521,2.1916,-0.4972,-0.3097,0.1747
1781766560046,-7.7065,3.4735,-1.0668,0.1741,0.7831,1.4765
1781766560086,5.0525,-5.2988,1.5901,0.5687,0.2541,0.212
1781766560126,1.905,-1.8553,0.5691,-0.0641,-0.6836,-0.5565
1781766560166,-0.3473,-3.7572,0.2602,1.0574,0.7428,-0.5602
1781766560206,0.9588,-2.2038,-0.0922,0.9493,0.7819,-1.0647
1781766560246,8.5601,-3.293,0.7456,-0.8839,-1.0898,-3.3066
1781766560286,4.9221,-2.945,7.6596,-1.0519,-0.6781,-2.6322
1781766560326,-8.0199,0.8607,-1.2797,-0.7642,0.0586,-0.8888
1781766560366,0.257,-3.3745,-0.0737,-0.515,0.3622,-0.9475
1781766560407,-1.5082,-0.7689,1.8067,0.135,-0.3842,-1.7501
1781766560446,12.8102,5.0669,1.3076,-1.1857,-2.1087,-2.0934
1781766560487,-1.0992,-5.2047,4.8873,0.0696,0.1894,-1.7459
1781766560526,-1.2927,-4.1572,-1.2523,1.0324,-0.201,-0.9975
1781766560566,0.4503,-1.1211,-0.7457,0.3238,0.5675,0.0617
1781766560606,-4.7165,-4.5686,2.6308,-0.3115,-0.5357,0.5608
1781766560646,9.5555,4.8177,-1.4773,-0.4844,0.157,-0.7715
1781766560686,2.3467,1.5466,1.4206,0.2071,-0.0611,0.1332
1781766560726,-0.5413,-0.769,1.0176,0.7282,0.1417,0.0043
1781766560766,1.6841,-2.4086,1.033,-1.2132,0.0031,-0.1478
1781766560806,2.3761,-1.3546,0.9378,0.1478,0.3738,-0.7184
1781766560846,1.978,4.8639,2.6448,1.0458,0.4777,-1.5149
1781766560887,0.8615,0.6264,1.8178,1.2462,1.8729,-0.8412
1781766560926,1.1111,-0.9402,3.5196,0.8827,0.7453,-0.38
1781766560966,0.4843,-3.7237,1.408,0.2315,-0.4917,-0.3732
1781766561006,-0.3141,-5.5504,-0.0226,-0.2889,-0.0916,-1.0244
1781766561047,3.9697,3.0544,-0.2305,0.8027,0.6836,-2.1692
1781766561086,1.3479,-0.9567,0.1516,-0.4386,1.0495,-2.3097
1781766561127,0.4314,1.8886,3.1383,-0.0086,-0.4337,-0.2596
1781766561167,-0.4724,-0.0629,1.1988,-0.0959,-0.0299,0.036
1781766561206,2.8495,5.3889,2.8962,0.1991,0.2724,-1.5186
1781766561246,2.6904,-0.0959,1.3773,0.0464,1.2327,-2.5204
1781766561286,2.3059,5.6419,2.1092,-0.1912,1.8644,-2.9132
1781766561326,-0.2197,-4.959,0.1678,-0.617,1.149,-3.8992
1781766561366,1.5339,-4.5162,-0.1119,-0.609,0.1161,-0.931
1781766561406,1.8676,1.3718,-0.1181,-1.2034,-0.6041,0.4105
1781766561446,0.5413,-2.566,0.3277,-1.2358,-0.8656,1.4838
1781766561486,-0.0918,5.3159,3.0289,-0.9719,-0.6695,0.8607
1781766561528,0.4472,7.2087,4.9259,-0.8448,-0.0531,0.5583
1781766561566,1.1224,6.198,3.9356,-0.6958,0.0055,0.2773
1781766561607,2.9328,0.6644,-1.6005,-0.6542,-0.5455,0.3971
1781766561647,2.604,-9.4443,-3.4212,-0.6952,-0.6695,0.6206
1781766561687,-1.0953,-2.5945,-3.3437,0.2511,0.1356,-0.2975
1781766561727,-1.652,-10.1489,-3.9499,1.708,1.3378,-1.6884
1781766561766,1.7234,-18.4348,0.4972,2.4764,0.8204,-0.6194
1781766561806,5.2701,-11.9269,-0.7889,1.8949,-0.0531,-0.5461
1781766561846,2.2537,0.2244,1.908,1.1979,-0.92,-0.2676
1781766561886,-0.8977,9.9587,2.0239,0.4643,-0.2889,-0.0269
1781766561926,-1.5253,9.8207,-2.2824,-0.6946,-0.5589,0.1466
1781766561966,3.0284,10.1972,4.4403,-0.193,-0.515,0.1142
1781766562006,0.5401,8.2227,2.2199,-0.2969,-0.7917,0.0892
1781766562046,-1.3488,9.4667,2.9069,-0.0476,-0.7019,0.2126
1781766562086,0.8767,10.81,2.4675,0.201,0.047,0.0574
1781766562126,0.3676,9.2251,1.8568,0.2602,0.1588,0.2132
1781766562166,1.2467,-4.421,-11.8787,-1.5125,-0.0018,0.9475
1781766562206,2.1301,-7.1186,-5.2866,-1.7862,-0.7599,0.3329
1781766562247,-8.5388,-26.2097,-0.7676,-1.2663,-0.7013,-0.295
1781766562286,-1.6433,-14.8421,0.7083,1.1777,1.4355,0.4319
1781766562326,11.3954,-13.7409,2.0722,2.1783,1.7617,-0.6817
1781766562366,6.0618,0.3714,0.5971,1.5009,0.0806,-1.1875
1781766562406,-0.9181,8.8816,1.317,0.6909,-0.8375,-0.9407
1781766562446,-4.9597,9.7142,-1.1818,-0.7727,-0.5498,-0.2456
1781766562486,-0.9237,9.8504,3.3835,-0.1491,0.0947,0.1668
1781766562526,-0.6344,7.5607,2.7539,-0.1161,0.0556,0.3366
1781766562566,-1.0013,8.6467,4.0947,0.1313,0.2841,0.3335
1781766562606,0.3192,10.0853,3.3124,0.1442,0.1949,0.1998
1781766562646,3.335,9.2859,2.2452,0.2957,0.6329,0.1491
1781766562686,3.3215,7.1984,0.123,-0.3091,0.171,0.1014
1781766562726,2.7783,-26.8264,-3.9125,-1.8998,1.2798,0.4429
1781766562766,10.2836,-7.0101,-4.5872,-2.3042,-2.5895,0.3451
1781766562806,-14.1198,-25.3106,0.0171,-0.0269,-1.774,1.0452
1781766562846,3.1145,-12.4085,0.5531,1.8466,1.3292,-0.5699
1781766562886,6.6304,-4.3849,-0.4037,2.0323,0.7892,-0.8772
1781766562927,2.3522,7.8241,-0.7325,1.0177,-0.7446,-0.8851
1781766562966,-3.3925,8.5954,-3.2799,-0.7813,-0.4771,-0.3885
1781766563006,-2.2285,11.3593,6.7313,-0.4691,0.3537,0.3005
1781766563046,-1.2806,9.0858,3.4002,-0.077,-0.1765,0.485
1781766563086,-0.4907,8.2445,3.1028,0.3409,-0.1307,0.4808
1781766563126,-0.221,9.9083,3.0534,0.317,0.0287,0.2505
1781766563166,1.0259,9.0559,0.5992,0.2217,0.2669,0.2492
1781766563206,1.475,8.8907,0.7373,-0.0275,0.1875,0.496
1781766563247,2.5785,0.9358,-3.5188,-1.6023,0.3787,0.7465
1781766563286,3.8029,-26.3913,-4.5677,-1.2205,0.1307,0.1356
1781766563326,0.0862,-22.8677,2.1138,-1.8149,-2.3353,-0.4942
1781766563366,-6.7477,-15.3034,-2.0437,0.8351,0.5962,-0.2627
1781766563406,5.8619,-12.314,1.3237,2.2339,1.7923,-0.9041
1781766563446,6.8111,1.6434,-0.4999,1.821,0.0061,-0.9163
1781766563486,0.8237,8.9256,-1.0871,0.5528,-0.7715,-0.8076
1781766563526,-3.0509,10.2727,1.0474,-0.8998,-0.1674,-0.5198
1781766563566,-1.1583,10.4464,6.0801,-0.0403,-0.044,0.1637
1781766563606,-0.1611,8.6636,4.0956,0.2724,-0.4765,0.2639
1781766563646,-0.6933,8.5898,2.248,0.427,-0.4734,0.2254
1781766563686,-0.1122,9.2972,1.9822,0.3207,0.2053,0.025
1781766563726,0.1568,9.3624,0.7939,0.2957,0.361,0.1313
1781766563766,2.5562,9.0739,-0.6464,-0.1985,-0.3317,0.3464
1781766563806,12.3396,-22.0763,-14.8694,-1.8992,0.8253,0.5559
1781766563846,1.0158,-13.6011,-2.299,-2.204,-2.7477,0.4905
1781766563886,-4.9632,-22.2113,0.3547,-0.2028,0.2279,0.6212
1781766563926,-0.4735,-12.0767,0.2726,2.1551,1.295,0.2224
1781766563966,7.6253,-0.838,-0.2228,1.8161,0.7599,-0.0147
1781766564006,5.4737,6.9508,-5.0021,-0.1057,-0.1814,-0.642
1781766564046,-2.5233,12.8312,6.716,-1.2694,-0.0458,-0.38
1781766564086,-0.8682,11.8709,4.3278,0.0421,-0.6976,0.3274
1781766564127,0.7559,7.5545,2.1218,0.292,-0.493,0.2468
1781766564167,-2.6269,7.0875,3.1768,0.2694,0.0476,0.0672
1781766564206,-0.1398,10.3245,2.843,0.3873,0.4533,0.2309
1781766564246,1.0476,10.7044,1.27,0.27,0.3329,0.2957
1781766564286,2.8388,9.8962,0.1147,-0.2792,-0.3073,0.2053
1781766564327,8.5162,-6.4106,-14.4084,-1.8057,0.5339,0.5828
1781766564366,-8.3017,-13.5143,-4.2959,-1.6933,-2.6463,0.5394
1781766564406,-5.7961,-25.4608,1.9309,-0.5363,0.2272,0.6096
1781766564447,0.7453,-12.9527,1.5415,2.1515,1.1136,-0.1466
1781766564486,4.8897,-2.9645,1.2106,2.1209,0.73,-0.2205
1781766564527,7.1692,7.1685,-3.868,0.3641,-0.3512,-0.5376
1781766564566,-1.481,11.3735,1.7072,-1.5015,0.0012,-0.493
1781766564607,-1.2442,12.5286,5.2542,-0.347,-0.2944,0.0702
1781766564646,-1.1899,8.0005,3.2952,0.0983,-1.0281,0.5211
1781766564686,-1.3593,6.5176,2.1428,0.3176,0.2315,0.2156
1781766564726,0.9822,10.107,3.1324,0.2932,0.7892,-0.0922
1781766564766,0.7823,9.9308,1.4783,0.234,0.2529,0.179
1781766564806,3.0157,8.8767,0.7949,-0.3897,-0.2181,0.4227
1781766564847,3.4673,-7.5524,-11.8282,-2.1069,0.3122,0.7184
1781766564886,-3.1114,-6.7346,-2.8747,-1.4862,-3.0659,0.598
1781766564926,-14.8905,-31.7306,0.074,0.1344,0.7666,0.5449
1781766564966,3.6109,-11.2221,0.6516,1.9053,1.3323,-0.1277
1781766565006,2.9399,-1.2423,0.1946,1.8424,0.441,-0.3922
1781766565046,4.4209,7.8925,-2.6601,0.1729,-0.0916,-0.4661
1781766565086,-2.1378,11.2395,2.1529,-1.3885,0.292,-0.3818
1781766565126,-0.5545,11.8122,6.0353,0.0458,0.215,0.0275
1781766565167,-0.3331,7.9444,3.6913,0.2315,-0.0605,0.2834
1781766565206,-0.0015,7.3728,2.8496,0.1845,0.3635,0.3073
1781766565246,3.5372,9.3636,3.1879,-0.044,0.3873,0.2297
1781766565287,1.9421,9.0005,2.384,-0.4026,-0.2468,0.5272
1781766565326,3.6371,8.6214,1.7119,-0.551,-0.5345,0.7654
1781766565366,9.6612,-17.3741,8.8797,-1.7342,-0.6732,0.5669
1781766565406,-2.9801,-22.6571,-10.0861,-0.2999,-2.2877,0.1643
1781766565446,-3.5309,-20.5516,0.7989,-0.3934,0.405,0.7715
1781766565486,4.9262,-14.4189,3.2035,1.7233,0.5864,-0.0965
1781766565526,3.913,-0.8884,2.4876,1.6554,0.0623,-0.6316
1781766565566,1.899,8.8299,-2.0967,0.4563,0.1912,-1.0201
1781766565606,-0.8103,8.9584,-2.6845,-0.7642,0.1631,-0.5241
1781766565646,-3.4787,11.0434,3.6129,-0.1008,0.2169,0.1185
1781766565687,-3.1265,8.5675,4.4316,0.3207,0.6842,0.3757
1781766565726,0.2802,9.091,4.7464,0.8045,1.0843,0.0806
1781766565766,3.8225,10.4818,4.4092,0.7031,0.7508,-0.0599
1781766565806,4.9266,8.5151,1.6477,0.16,-0.0849,0.033
1781766565846,6.5219,1.7462,-6.6102,-1.8222,-0.0648,0.0531
1781766565886,1.6831,-33.562,-4.0779,-1.3873,-2.5626,0.4887
1781766565926,-10.7303,-31.8702,3.3852,0.504,-0.3696,0.9071
1781766565966,5.471,-13.9611,-0.3231,1.4203,-0.0073,-0.2712
1781766566006,5.9845,-2.0631,-0.4777,0.8137,-0.9963,-0.821
1781766566047,-0.4483,8.0458,-2.2177,-0.6304,-0.5003,-0.6652
1781766566087,-3.1706,11.4551,1.9319,-0.5015,0.3085,-0.0305
1781766566126,-1.9644,12.5584,3.1915,0.0031,-0.0519,0.1228
1781766566166,-1.6565,7.443,1.0498,0.2089,0.0177,0.383
1781766566206,-0.9683,7.2967,3.5361,0.0843,0.3183,0.2621
1781766566246,0.5455,9.7367,2.5792,-0.2077,0.3696,0.2718
1781766566286,1.4618,9.0711,0.8892,-0.7025,0.7263,0.3971
1781766566326,4.5898,3.231,-4.6229,-2.1197,0.6377,0.4746
1781766566366,-0.1401,-37.2118,-9.7727,-1.4062,-2.6328,0.6829
1781766566406,-10.4136,-29.8822,-1.0644,0.1833,0.3897,0.1527
1781766566446,-0.0355,-12.2423,1.7449,1.5925,0.5559,-0.1466
1781766566486,3.8981,0.0971,2.499,1.6335,-0.1313,0.0861
1781766566526,3.8583,7.4178,-2.1881,-0.317,0.0055,-0.4001
1781766566566,-0.4281,9.6261,0.0153,-0.7575,0.2217,-0.2388
1781766566606,-2.8415,12.3316,4.7771,0.1356,-0.011,0.0892
1781766566646,-1.8703,8.1968,2.9674,0.1955,-0.0483,0.3641
1781766566686,1.16,8.0719,3.7455,0.201,0.4991,0.193
1781766566726,1.911,9.9674,3.8015,0.0812,0.248,0.0379
1781766566766,2.8841,8.209,2.2532,-0.0965,0.0226,0.3201
1781766566806,7.9141,4.2867,-5.7569,-1.9615,-0.4313,-0.0006
1781766566846,24.6212,-37.682,-2.2847,-1.6915,-3.7251,-1.7678
1781766566886,-11.0872,-31.982,-4.6405,0.0348,0.4759,0.6762
1781766566926,3.7787,-17.8367,2.0719,1.6237,1.306,0.2505
1781766566966,6.957,-3.9311,1.9337,1.6347,-0.4594,-0.08
1781766567006,2.4112,7.6439,-2.3083,0.0996,-0.5174,-0.3787
1781766567046,-0.936,9.5224,-0.5202,-0.4618,-0.0531,-0.2615
1781766567086,-0.8844,12.1464,4.7433,-0.1704,-0.1234,-0.1368
1781766567126,-3.796,7.0529,1.7904,-0.1436,-0.2413,0.5479
1781766567166,-1.9429,7.6125,2.659,0.1057,0.6139,0.5577
1781766567206,-0.1373,10.4112,3.5015,0.0593,1.0427,0.5205
1781766567246,2.9743,9.5441,2.9265,-0.0599,1.179,0.6726
1781766567287,3.2269,7.6104,-0.2681,-1.3231,0.7141,0.6518
1781766567326,9.5474,-15.2424,3.3054,-0.336,0.6023,-1.1967
1781766567366,1.3871,-14.3305,-3.676,-1.4624,-1.397,-0.5968
1781766567406,-11.3135,-25.6456,3.3068,1.3415,1.576,-0.1075
1781766567446,5.3687,-9.5138,1.1907,2.1576,0.5675,-0.708
1781766567486,2.2344,0.5852,-1.1979,1.3732,-0.3977,-0.4184
1781766567526,5.592,9.0948,-2.8334,-0.8515,0.2847,-0.5675
1781766567566,-0.802,10.9101,3.8356,-0.5528,0.1032,-0.0629
1781766567606,-3.1837,10.336,4.1213,-0.025,-1.0825,0.5883
1781766567646,-1.0537,8.4163,3.3722,0.1723,-0.3745,0.5541
1781766567686,-0.2546,9.2206,2.8097,0.1026,0.1839,-0.0941
1781766567726,0.305,9.1374,2.6204,0.1503,0.0483,-0.0385
1781766567766,2.4848,8.7039,1.2306,-0.2456,-0.4557,0.3836
1781766567806,6.1351,7.2737,-2.9636,-1.7593,0.0556,0.3549
1781766567846,26.8438,-38.6479,15.5253,-1.474,-3.5833,-1.7434
1781766567886,-3.8781,-23.884,-4.2534,0.2724,0.6011,0.0941
1781766567926,0.044,-19.4556,0.8587,2.0659,1.8925,0.1295
1781766567966,8.162,-8.1032,1.0455,1.9493,0.2132,-0.2193
1781766568006,3.1694,6.5381,-3.4169,-0.157,-0.1411,-0.3971
1781766568046,0.9131,7.03,-3.1431,-1.3946,0.1118,-0.223
1781766568086,-3.9397,13.3965,7.6949,-0.1967,-0.3598,0.2395
1781766568126,-1.1649,9.7968,4.2193,0.3738,-0.011,0.5235
1781766568166,-0.2687,8.3559,2.3556,0.2737,0.631,0.2413
1781766568206,2.5649,8.842,2.8492,0.0874,0.3176,-0.044
1781766568246,1.0274,9.6425,3.3138,0.1173,0.0629,0.1338
1781766568286,1.0264,9.2518,1.9809,-0.2511,-0.0476,0.3946
1781766568326,2.2961,6.2538,-4.306,-1.8552,0.865,0.6536
1781766568366,10.5398,-31.4573,17.6714,-0.5864,-1.7422,-1.0183
1781766568406,10.3319,-26.5699,-6.5281,-0.8357,-0.4288,-0.2107
1781766568446,-3.1395,-19.4312,1.7439,1.9212,1.6725,-0.3445
1781766568486,3.5373,-9.1185,2.5481,2.2126,0.452,-0.4056
1781766568526,1.8291,3.9983,-4.467,0.38,-0.0061,-0.3128
1781766568566,4.566,5.9839,-5.9944,-1.5828,0.1881,-0.427
1781766568606,-2.9757,13.8261,6.9498,-0.3372,-0.2737,0.0513
1781766568646,-2.2998,10.9049,4.4713,0.1057,-0.5907,0.3916
1781766568687,-1.39,7.6515,3.5173,0.4239,0.5376,0.3158
1781766568726,1.3426,8.1017,3.498,0.2181,0.4533,0.0849
1781766568767,2.5413,10.0561,3.0416,0.1448,-0.1148,0.1723
1781766568807,1.8356,9.9381,2.0589,-0.2193,-0.5547,0.2834
1781766568846,2.8505,7.4173,1.5053,-1.0916,0.0092,0.3751
1781766568886,0.962,-16.056,-10.6473,-0.8234,0.9762,-0.4899
1781766568926,7.9422,-10.0303,3.7393,-1.4539,-2.0568,-0.7648
1781766568966,-15.0353,-27.3138,-0.0777,0.8125,0.6066,-0.1466
1781766569006,7.3231,-13.2815,1.7617,1.5174,-0.3494,-0.9902
1781766569046,0.4143,-0.2724,0.3747,1.1906,-0.7844,-0.719
1781766569087,-1.4947,10.1498,0.3697,-0.0678,0.5388,-0.4496
1781766569126,-0.7893,10.8921,-1.0035,-0.5235,0.4026,-0.2144
1781766569166,0.0231,10.3612,3.6389,0.0263,0.1515,0.1686
1781766569206,-1.4175,7.2497,3.6296,-0.0531,-0.4001,0.6103
1781766569246,-0.9786,8.0537,4.2895,-0.066,-0.223,0.4001
1781766569286,0.6375,9.6976,3.5141,0.1185,0.4258,0.4166
1781766569326,2.8272,8.3797,3.557,-0.0819,0.5547,0.2505
1781766569366,2.045,7.8798,5.9089,-0.3574,0.7685,0.336
1781766569407,1.1872,-18.4735,-9.2114,-0.2089,-0.7312,-0.1826
1781766569446,10.8123,-12.895,-6.3431,-0.7336,-1.0446,-1.1759
1781766569486,-6.9664,-25.0456,-3.1177,1.1515,1.025,-0.2914
1781766569526,6.4346,-6.8607,0.975,1.7721,0.7172,-0.821
1781766569566,2.6604,4.491,-0.2337,1.1478,-0.438,-0.8729
1781766569606,1.8691,10.5876,-0.6701,-0.2877,-0.0244,-0.8344
1781766569646,-0.9619,10.6432,0.9291,-0.0929,-0.0263,-0.361
1781766569686,-1.0317,7.1543,2.0523,-0.2627,-0.7886,0.2236
1781766569726,-1.2295,7.2714,1.7715,-0.2896,-0.5058,0.3415
1781766569766,-1.1425,11.0788,4.782,-0.121,0.1454,0.2382
1781766569806,0.2244,10.2948,4.2402,0.0593,0.4759,0.2773
1781766569846,1.985,8.641,2.8449,-0.1668,-0.4429,0.2865
1781766569886,8.1519,5.8246,-2.3834,-1.5088,0.3977,-0.011
1781766569926,13.3821,-29.9604,11.4355,-1.3683,-3.0213,-0.9139
1781766569966,-2.1447,-31.4983,-5.1059,-0.6194,-0.1429,0.2505
1781766570006,-3.7996,-18.2584,1.7199,2.1258,1.4007,0.1332
1781766570046,5.7565,-8.9267,0.5984,2.1997,0.38,-0.1802
1781766570086,1.7106,3.6731,-3.7206,0.5162,-0.3488,-0.3231
1781766570126,4.1414,7.0012,-6.1627,-1.3983,0.6701,-0.6182
1781766570166,-2.3805,12.4029,7.8167,-0.4685,-0.1112,-0.0568
1781766570207,-1.9481,10.6163,3.0937,-0.022,-0.5797,0.4056
1781766570246,-2.2636,8.7696,3.5466,0.3555,-0.1112,0.474
1781766570286,-0.3685,8.9198,2.5496,0.1594,0.4105,0.0696
1781766570326,2.4361,9.4072,1.9808,0.0489,0.6255,0.022
1781766570366,1.26,9.3005,2.9003,-0.2022,0.2804,0.4166
1781766570406,3.7526,8.3938,-0.2953,-1.6328,0.2217,0.6005
1781766570446,13.5778,-16.6415,-0.7357,-0.1045,0.3054,-1.8521
1781766570486,-11.3412,-14.3556,-2.9904,-1.485,-0.3445,0.7025
1781766570526,-0.3821,-17.2515,4.8959,1.4007,2.3359,-0.16
1781766570567,3.8906,-9.855,1.3888,2.0342,1.0947,-0.5021
1781766570606,1.8725,3.4103,-1.035,1.5925,0.055,-0.1539
1781766570646,2.966,10.3253,-2.2403,0.182,-0.08,-0.1759
1781766570686,0.2684,11.0744,2.8444,-0.8015,0.4636,-0.292
1781766570726,0.9076,8.6457,3.6158,-0.1875,-0.3067,-0.1491
1781766570766,-2.8817,8.4956,2.983,-0.0874,-0.4136,0.0513
1781766570806,-2.9948,9.256,3.0001,-0.0837,0.35,0.3598
1781766570846,0.5547,9.1398,3.4595,-0.0238,0.551,0.5211
1781766570886,2.3289,8.2212,3.6785,-0.0794,0.4197,0.5241
1781766570926,3.7108,6.1587,2.4326,-0.5803,-0.1197,0.38
1781766570966,9.2907,-17.3213,-0.8227,-2.4435,0.201,0.3085
1781766571006,-3.3567,-22.1066,-3.3831,-1.6402,-4.3542,0.8045
1781766571046,-4.7972,-20.0107,1.1704,0.0825,1.0489,-0.1503
1781766571086,5.5813,-10.696,1.1271,2.6163,1.1081,-0.0202
1781766571126,4.7883,1.5863,-0.1074,2.2529,-0.2553,-0.1252
1781766571166,4.8182,9.8112,-2.1326,0.5125,-1.1655,-0.4887
1781766571207,-0.4979,10.274,0.9985,-0.8033,0.2792,-0.6402
1781766571246,-2.0631,9.0618,5.0185,-0.0678,-0.452,0.0531
1781766571286,-2.2983,9.2376,2.0593,-0.0421,-1.0898,0.4881
1781766571326,-2.4707,9.3143,3.8248,0.1607,0.2602,0.4221
1781766571366,-0.783,9.392,2.2791,0.3176,0.7819,0.3561
1781766571406,0.5004,8.8002,2.3557,0.3482,0.6713,0.3629
1781766571447,5.0724,7.3815,1.7213,-0.0538,0.54,0.3958
1781766571486,4.1826,-18.2176,-7.3301,-2.2101,0.9841,0.3506
1781766571526,-0.4459,-13.4114,-0.3823,-1.2474,-2.6023,0.6359
1781766571566,-1.6321,-23.9456,1.7687,0.2657,1.1191,0.1564
1781766571606,5.3867,-10.5676,-0.6157,1.8332,0.857,-0.5394
1781766571646,1.905,2.4663,0.0998,1.416,0.0476,-0.1949
1781766571686,5.6298,8.82,-3.5793,-0.014,-0.5137,-0.1625
1781766571726,-0.6697,10.1866,3.5872,-1.4875,0.0672,-0.0709
1781766571766,-1.5115,9.9486,5.5043,-0.8894,-0.5687,0.1662
1781766571806,1.0008,9.5365,4.1837,-0.1173,-0.9554,0.1478
1781766571846,-2.274,8.4975,3.484,0.2584,-0.7483,0.0519
1781766571886,1.0768,8.8333,0.7821,0.1991,-0.2584,0.0324
1781766571926,1.2496,9.5836,0.0236,0.0379,0.2144,0.0605
1781766571966,3.3087,7.4634,-3.3048,-0.9187,-0.0391,0.2602
1781766572006,21.1629,-46.8406,17.2576,-1.73,0.6035,-0.0171
1781766572046,5.5834,-17.0311,-2.7562,-1.2804,-1.8338,0.8906
1781766572086,2.0855,-18.5614,2.2972,0.8515,0.7978,0.3971
1781766572127,9.8019,-9.8238,0.6436,2.058,0.3708,-0.6158
1781766572166,0.9238,4.4076,-0.9196,1.7678,-0.7978,-0.6475
1781766572206,-1.4356,10.7321,-2.637,0.1741,-0.4514,-0.4814
1781766572246,0.4418,10.7313,3.4211,-0.6176,0.0556,-0.2004
1781766572287,-0.7309,8.2661,3.6041,-0.35,-0.2095,-0.0281
1781766572326,-1.254,8.2454,3.2077,-0.3757,-0.587,0.3427
1781766572366,-2.2463,8.8007,3.3224,-0.1607,-0.3238,0.4227
1781766572406,-0.3518,9.7199,3.5093,-0.0513,0.3403,0.4667
1781766572446,2.6046,8.7898,2.5477,0.0116,0.865,0.628
1781766572486,6.7008,0.3308,-12.1309,-1.7306,0.7691,0.7599
1781766572526,-5.0046,-15.6457,-6.2315,-2.5345,-3.1765,0.3812
1781766572566,-16.847,-30.172,1.3568,-0.7019,0.6622,-0.2334
1781766572607,4.8936,-12.6567,1.2981,2.5168,1.5467,-0.3586
1781766572646,4.4011,-7.5101,1.1063,2.179,0.6726,-0.3757
1781766572686,0.8609,7.3107,-1.7557,1.711,-0.3561,-0.1778
1781766572726,2.4001,11.0742,-2.4817,0.1723,0.3183,-0.6023
1781766572766,-0.5935,9.176,1.6986,-0.3225,0.1338,0.0898
1781766572806,-1.0699,7.6364,2.0384,-0.204,-0.339,0.2981
1781766572846,-2.9571,8.7586,3.9565,-0.055,-0.1973,0.5736
1781766572886,1.1411,10.06,4.7207,0.1155,0.3091,0.5137
1781766572926,1.8997,9.6358,1.7531,0.0617,0.4691,0.4038
1781766572966,4.7552,8.7324,4.9476,0.1332,0.7605,0.2224
1781766573006,24.0042,-47.7221,1.1336,-0.9248,0.5718,-0.9872
1781766573046,1.6108,-18.7696,2.0707,-2.259,-2.4679,-0.5443
1781766573086,-2.6895,-17.0648,2.683,0.9914,1.0684,0.2303
1781766573126,2.0606,-8.8096,0.0343,2.1655,0.496,-0.493
1781766573166,2.8725,2.2178,-0.579,1.7587,-0.2767,-0.4239
1781766573206,-0.6461,11.2825,0.3422,0.8161,-0.722,-0.3769
1781766573246,-0.8828,11.2301,-1.6422,-0.507,0.5345,-0.4374
1781766573286,-0.3195,8.0281,2.1639,-0.2883,0.54,-0.2034
1781766573326,-1.5754,7.1807,2.9767,-0.3048,0.3696,0.1509
1781766573366,-2.1624,9.1952,5.3364,-0.0446,-0.245,0.6542
1781766573406,-1.4532,10.7919,1.8083,0.2437,0.08,0.5266
1781766573446,0.0405,8.3155,2.5183,-0.044,0.2938,0.6854
1781766573486,4.9113,5.4796,-6.9745,-0.0996,1.1777,0.7758
1781766573526,8.9723,-42.0708,-1.0935,-0.5052,1.7856,-1.6854
1781766573566,-15.5529,-33.9651,-2.8419,-0.1973,-0.4331,-1.1649
1781766573606,-3.3707,-16.2081,-1.1509,1.4221,1.9371,-0.0495
1781766573646,6.5397,-4.4209,0.0281,1.5003,0.6158,0.1484
1781766573686,5.5489,7.0434,-1.7289,0.5406,-0.4789,0.2437
1781766573726,0.1592,10.5864,0.1145,-1.0867,0.4979,-0.0367
1781766573767,-0.7161,11.3293,6.9331,-0.8289,0.1381,-0.0562
1781766573806,2.0579,9.1209,2.8313,-0.2902,-0.5791,-0.1197
1781766573846,-1.2498,7.7513,4.3375,0.0031,-1.1613,0.2291
1781766573886,-1.7031,9.5888,3.1131,0.1112,-1.1881,0.3763
1781766573926,0.7794,9.8478,1.3726,0.2651,-0.259,0.2651
1781766573966,1.5967,7.6532,0.4901,-0.4606,0.033,0.3665
1781766574006,7.0847,-1.3683,-10.8965,-2.0904,0.4808,0.3512
1781766574046,0.3642,-26.2509,-5.0308,-1.0024,-2.7819,-1.0012
1781766574086,-17.0233,-25.3362,-0.5716,-0.3439,0.2798,0.2529
1781766574126,9.1263,-14.8828,1.2242,1.7813,1.1973,-0.1295
1781766574166,-3.3256,-3.2224,0.5568,1.945,-0.2034,-0.6866
1781766574206,1.3555,7.6773,-1.9276,0.5638,0.2633,-0.4746
1781766574246,2.5225,9.853,-0.0018,-0.8937,0.2352,0.0556
1781766574286,-2.0222,10.9097,4.8245,-0.3879,-0.2932,0.1998
1781766574326,-2.0318,8.8488,4.1059,0.0293,-0.3005,0.2431
1781766574366,0.7603,8.3716,3.9651,0.2388,0.3311,0.1271
1781766574406,1.3907,10.2199,4.6331,0.4355,0.5229,-0.0379
1781766574446,0.8996,9.8239,2.7727,0.4044,0.2841,-0.0275
1781766574486,1.3808,7.367,0.3431,0.2059,-0.3231,0.4924
1781766574526,3.3124,-2.1572,-9.9324,-1.5253,0.5968,1.0085
1781766574566,1.4628,-27.4641,-6.3119,-1.609,0.1796,-0.9175
1781766574606,-11.3177,-26.793,0.0018,-0.5388,-0.8008,-0.6255
1781766574646,-2.4554,-17.9939,-0.6902,1.7953,1.7996,-0.4068
1781766574687,5.5966,-8.4479,1.0579,2.0299,0.62,-0.8247
1781766574726,2.8886,6.6356,-1.8885,1.0861,-0.6377,-0.5913
1781766574766,2.1752,10.7486,-1.7974,-0.5186,0.0861,-0.4655
1781766574806,-0.7396,10.8403,4.2258,-0.8112,-0.1118,-0.1698
1781766574847,-2.2573,9.2619,3.4171,-0.1289,-1.2339,0.2944
1781766574886,-2.4119,7.2582,1.8501,0.0305,-0.6267,0.485
1781766574926,1.6706,8.9185,5.3823,0.0275,0.4826,0.1845
1781766574966,1.5317,11.2259,3.0209,0.1881,0.0837,-0.2364
1781766575006,-0.1076,9.8063,3.2933,0.1625,-0.5583,-0.0709
1781766575046,1.9953,6.9479,0.7968,-0.2724,-0.3574,0.7092
1781766575086,6.5704,-12.3561,-7.2321,-2.9114,-0.0354,1.3677
1781766575126,-5.3322,-9.1678,-0.0074,-1.4331,-3.2272,-0.4826
1781766575166,-16.7588,-25.843,-3.2873,-0.1655,-0.0806,0.8082
1781766575206,12.0724,-12.1458,1.3716,2.3274,0.4606,-0.5999
1781766575246,-3.6364,-3.4602,-0.318,1.6823,-0.3952,-0.9493
1781766575286,0.5474,10.2738,1.0891,0.5302,-0.1381,-0.474
1781766575326,-0.0169,10.719,-0.9952,-0.7886,0.2902,-0.1851
1781766575366,-1.0633,9.6827,4.5583,-0.1936,0.2065,0.0122
1781766575406,-3.1697,8.0658,3.2757,-0.077,-0.3421,0.3543
1781766575446,-2.9705,8.1037,2.398,0.0599,0.2248,0.5944
1781766575486,2.1626,10.1542,3.9474,0.16,0.6854,0.5541
1781766575526,2.9141,9.6369,2.6114,0.1912,0.7172,0.3152
1781766575566,3.5944,7.7067,1.4853,-0.0929,0.1747,0.4746
1781766575606,6.4007,1.4398,-8.3966,-2.0586,1.0171,0.4594
1781766575646,8.1238,-39.3587,-9.0507,-0.6768,-1.3964,-1.066
1781766575686,-17.1387,-29.3466,-4.1039,-1.0562,-0.0018,-0.215
1781766575727,3.9741,-12.2229,3.3067,1.8082,1.7947,-0.8027
1781766575766,1.0756,-6.0634,1.1474,1.9432,0.2822,-0.9798
1781766575806,2.5501,7.775,-0.6839,1.1472,-0.6756,-0.347
1781766575846,-0.1651,10.4572,-4.4261,-0.4429,0.1735,-0.1503
1781766575886,-0.7792,11.2945,4.0391,-0.449,0.1368,-0.1075
1781766575926,0.1471,9.3218,3.4359,-0.0415,-0.8491,0.1686
1781766575966,-3.5387,8.2083,2.478,0.0452,-0.6878,0.3757
1781766576006,0.1167,9.2089,3.8415,0.2902,0.6823,0.3348
1781766576046,2.4309,9.8724,3.4037,0.3097,0.6353,0.2987
1781766576086,2.0521,8.4177,3.1427,-0.0006,-0.0776,0.4472
1781766576126,6.4374,3.4629,-4.7662,-1.0189,-0.4001,0.496
1781766576166,10.6083,-42.2707,0.5165,-0.6219,0.8045,-0.8161
1781766576207,-19.3558,-41.3336,-1.3971,-0.6762,-0.3445,-0.8497
1781766576246,-2.2029,-16.2901,2.308,1.1655,1.9926,-0.0556
1781766576286,9.0284,-4.3336,0.7705,1.7819,0.1045,-0.4398
1781766576326,2.9149,7.7137,-1.9824,0.7648,-0.6402,-0.4239
1781766576366,1.2924,10.635,-0.5252,-1.0904,-0.0043,-0.3293
1781766576406,-1.147,10.3034,4.3975,-1.025,-0.1949,-0.0299
1781766576446,-1.9936,8.3456,5.253,-0.1148,-0.7819,0.3684
1781766576486,-0.9059,8.8634,3.3855,0.0867,-0.6109,0.3659
1781766576526,-0.8994,10.0784,2.6661,0.0977,-0.1399,0.2413
1781766576566,0.993,9.9817,1.8132,0.1826,0.3879,0.3702
1781766576606,1.6561,9.0428,2.9441,0.1436,-0.0049,0.6084
1781766576646,6.3631,1.075,-6.2141,-1.0464,0.0715,0.6548
1781766576686,1.03,-35.61,-12.5422,-0.8955,0.2688,-0.4533
1781766576727,-5.6351,-26.8745,3.4828,-1.3683,-0.4386,-0.1051
1781766576766,-0.5413,-14.6806,3.9316,1.5681,0.7544,-0.9517
1781766576806,0.8727,-6.1902,1.8751,2.3347,0.529,-0.5681
1781766576847,3.2026,6.6649,-3.7553,1.7996,-0.4636,-0.1576
1781766576886,1.2679,8.833,-3.8542,-0.0476,0.6188,-0.5846
1781766576926,-1.2965,9.7453,2.9881,-0.9523,0.6402,-0.6439
1781766576966,-1.2874,9.5377,3.9022,-0.1368,-0.2883,-0.1051
1781766577006,-2.1711,9.176,3.1846,-0.1649,-0.4893,0.4215
1781766577046,-0.7893,9.6044,1.1775,-0.2364,-0.328,0.5877
1781766577086,2.077,9.5107,4.1544,0.3512,0.8155,0.4649
1781766577126,3.3279,8.6472,3.2099,0.1277,0.5137,0.3946
1781766577166,6.1343,3.9215,-2.9601,-0.7587,0.6738,0.0092
1781766577206,6.8581,-44.0618,1.3684,-1.149,1.1588,-0.5779
1781766577246,-12.6261,-27.2236,1.5218,-0.8332,-2.0189,-0.0305
1781766577286,-2.8376,-15.0842,1.1956,1.0941,1.3219,-0.3122
1781766577326,6.0157,-6.3495,1.3274,1.9688,0.6677,-0.7306
1781766577366,3.4208,5.9065,-2.5579,1.2767,-0.2957,-0.6536
1781766577406,-0.3465,9.6328,-2.36,-0.3567,-0.3329,-0.573
1781766577446,-1.775,11.7535,2.9117,-0.7679,0.1179,-0.0904
1781766577486,-1.795,9.6371,5.2255,-0.0195,-0.2395,0.4337
1781766577526,0.2885,8.1414,2.9724,0.0299,-0.4227,0.5406
1781766577566,0.5871,8.4314,2.8799,0.1429,-0.4374,0.1674
1781766577606,1.9596,9.222,3.0279,0.3207,0.1008,0.0929
1781766577646,1.5951,8.9376,2.3784,-0.0049,0.16,0.1472
1781766577686,3.9299,3.2664,-8.2068,-1.3628,0.0782,-0.0257
1781766577726,5.5114,-43.9876,-1.5386,-1.157,0.9511,-0.989
1781766577767,-7.2567,-28.975,4.0657,-0.5773,-0.1698,0.1863
1781766577807,2.1695,-14.9171,1.7371,1.0305,1.0653,-0.19
1781766577846,6.31,-6.9619,1.1912,1.8118,-0.259,-0.9169
1781766577886,-0.3968,4.3854,-0.3754,1.4752,-0.8332,-0.4991
1781766577926,-0.8988,10.2471,-0.6044,0.2975,-0.1295,-0.3965
1781766577966,0.9388,9.7324,0.758,-0.4465,0.3457,0.0434
1781766578006,-0.3133,8.846,3.2801,-0.2059,-0.3971,0.474
1781766578046,0.1394,8.6999,3.407,-0.2162,-0.4478,0.4484
1781766578086,-0.0651,9.5224,2.999,-0.1833,-0.5064,0.2859
1781766578126,0.2195,9.5032,3.453,0.1393,-0.1179,0.2804
1781766578166,1.1972,8.2026,2.5532,-0.0305,0.2162,0.2175
1781766578206,6.067,3.5814,-4.9345,-0.8143,0.0006,-0.0953
1781766578246,5.667,-43.4521,4.7878,-1.2559,1.0055,-0.7978
1781766578286,-12.2525,-31.3248,-3.3867,-1.0122,-1.4282,-0.3488
1781766578326,0.9413,-14.0547,1.5987,1.1148,1.9212,-0.3305
1781766578366,5.7518,-5.9287,1.603,1.9939,0.6891,-0.5137
1781766578406,3.2858,6.9129,-0.9336,1.4655,-0.5608,-0.2871
1781766578446,0.6833,9.307,-4.0446,-0.0605,-0.0794,-0.2999
1781766578487,0.0273,10.3133,2.3289,-0.7862,0.3158,-0.2578
1781766578526,-0.8294,9.0841,5.15,-0.2511,-0.1906,0.0971
1781766578566,-2.7269,9.6933,4.0895,0.124,-0.4539,0.4105
1781766578606,-1.031,10.3166,2.0664,0.1491,-0.5693,0.5168
1781766578646,1.2834,10.8449,2.6577,0.5315,0.8082,0.4667
1781766578686,4.0034,8.4026,2.4139,0.1478,0.3818,0.3231
1781766578726,3.9133,1.6958,-7.0213,-1.4441,0.124,0.2896
1781766578766,2.507,-39.3704,-4.1609,-1.3946,-0.3372,-0.3122
1781766578806,-10.0855,-26.1051,-0.574,0.0012,0.0757,-0.4606
1781766578846,-2.5699,-17.0072,0.7406,1.4526,1.5632,-0.4203
1781766578886,5.0608,-4.9723,1.3901,1.9309,0.6756,-0.5583
1781766578926,2.9071,7.1222,-2.0244,1.2657,-0.4704,-0.3079
1781766578966,0.3756,8.7883,-3.12,-0.8399,0.2327,-0.5021
1781766579006,-1.324,9.1658,5.2496,-1.2724,0.328,-0.0904
1781766579046,-1.511,10.7173,4.3713,-0.2792,-0.507,0.3005
1781766579086,-1.5246,10.0805,2.4669,0.3549,-0.4643,0.4643
1781766579126,2.2826,9.1833,2.6788,0.2523,0.3073,0.3928
1781766579166,2.182,8.5333,2.5614,0.2205,0.5883,0.1124
1781766579206,1.7959,7.9833,2.3488,-0.3415,0.0086,0.1888
1781766579246,2.4846,4.1356,-2.2072,-1.0403,0.1069,0.2615
1781766579286,6.0664,-38.3437,4.8975,-1.2608,1.1643,-0.2828
1781766579326,-10.3237,-33.2423,2.5946,-0.7434,-1.3732,-0.3036
1781766579366,0.8266,-18.1135,0.8306,0.5864,1.2987,-0.6701
1781766579406,3.2855,-8.2374,0.5669,1.7568,0.2162,-0.9945
1781766579446,-1.1281,5.9545,0.5933,1.2181,-0.7648,-0.2541
1781766579486,-0.184,9.3685,-1.3305,-0.2101,0.1032,0.0605
1781766579526,1.1591,9.9698,1.9054,-1.0415,-0.2523,0.1045
1781766579566,1.2253,10.8405,4.9734,-0.2963,-0.5137,0.0965
1781766579606,-2.164,10.0058,5.4386,0.1845,-0.1613,0.2724
1781766579646,0.5956,8.8873,4.6159,0.573,0.0696,0.3965
1781766579687,2.3203,8.7916,2.9325,0.7129,0.295,0.215
1781766579726,2.4083,8.1314,2.5982,0.2792,-0.0397,0.2376
1781766579766,1.0776,6.8005,-0.5203,-0.325,-0.2083,0.4765
1781766579807,3.2684,-37.2379,5.5975,-2.1289,1.1283,0.9865
1781766579847,6.493,-18.0388,-8.6883,-1.3781,-2.5669,0.427
1781766579887,-6.0735,-21.399,-1.056,0.6139,0.3451,-0.2156
1781766579926,6.4559,-11.7015,1.0655,1.799,0.9865,-1.0867
1781766579967,1.47,3.7219,1.0754,1.6762,-0.5278,-0.8577
1781766580006,0.2454,10.9763,-1.6949,0.7526,-0.4636,-0.6524
1781766580046,-0.5137,8.9666,-0.7367,-0.8772,0.4001,-0.6377
1781766580086,-0.3631,7.9066,4.7889,-0.4337,0.033,-0.3488
1781766580126,-1.5027,7.6884,3.9692,-0.5663,-0.8974,0.0446
1781766580166,-3.4201,9.9092,4.7206,-0.1185,-0.562,0.391
1781766580207,1.3319,11.9518,3.7458,0.2798,0.2077,0.518
1781766580246,3.7531,9.6174,2.3708,0.4478,0.5681,0.3586
1781766580286,3.792,5.4415,-3.111,-0.212,0.0293,0.2669
1781766580326,6.1386,-38.0937,0.6349,-2.3598,1.113,0.438
1781766580366,5.7588,-17.0337,-2.6369,-3.025,-2.7538,0.9444
1781766580406,-6.1255,-19.6478,4.0123,0.1753,-0.1271,-0.11
1781766580446,1.6545,-11.3521,2.1158,2.1863,1.2248,-1.0934
1781766580486,3.9331,2.058,0.7627,2.1038,-0.1417,-0.4954
1781766580526,0.7089,10.7036,-0.8661,0.9035,-0.5504,-0.4478
1781766580566,-1.0886,9.9935,-0.804,-0.7538,0.8412,-0.5608
1781766580606,0.7148,8.9448,3.3664,-0.2321,0.234,0.0507
1781766580646,-3.4484,7.9602,3.678,-0.1118,-0.5046,0.2712
1781766580686,-1.9638,9.0795,3.9913,0.3543,-0.033,0.6255
1781766580726,0.4299,9.0139,2.3026,0.4716,0.8491,0.3971
1781766580766,5.3692,8.8081,2.2543,0.1478,0.1362,-0.0806
1781766580807,4.5448,5.9732,-1.2437,-0.3048,0.237,-0.6671
1781766580846,3.3469,-50.5395,9.0158,-1.0574,0.8717,-0.2993
1781766580886,4.11,-19.551,-2.1234,-1.7159,-1.7801,1.8662
1781766580926,3.4163,-18.4806,4.3675,0.7874,1.1167,-0.2248
1781766580966,0.0177,-5.3144,2.114,1.9126,0.609,-0.7776
1781766581006,2.3186,4.6574,-0.925,1.6121,0.0238,0.0415
1781766581046,2.9169,9.2833,-4.8076,-0.0525,-0.325,-0.1307
1781766581087,-1.3501,10.9397,3.637,-0.981,0.3293,-0.0788
1781766581126,-0.4844,8.9305,5.2526,-0.4417,-0.1313,0.1723
1781766581166,-0.2147,8.1173,2.5622,-0.1784,-0.6658,0.3775
1781766581206,-1.2752,9.5242,3.2775,0.2676,-0.7404,0.3378
1781766581246,0.982,9.1474,0.0607,0.1277,-0.2743,0.463
1781766581286,1.2486,7.9532,0.7925,-0.2724,0.361,0.6139
1781766581326,3.5703,-2.1833,-8.8657,-1.9615,1.1038,0.6029
1781766581366,-9.2994,-15.9491,-2.0219,-0.9548,-1.7538,-0.325
1781766581406,-7.5551,-25.5844,0.425,-0.168,0.9798,0.2718
1781766581446,3.731,-12.4049,2.4036,1.7648,1.5516,-0.9615
1781766581486,-0.2048,-0.946,1.9222,1.821,-0.2926,-0.5596
1781766581526,3.7266,8.066,-2.0496,0.9096,-0.7385,-0.1515
1781766581566,1.1352,9.8848,-0.277,-0.8076,0.2877,-0.091
1781766581606,-1.404,10.7136,4.8968,-0.6817,0.1851,-0.0299
1781766581646,0.8662,7.6259,3.3043,-0.0483,-1.0067,0.1155
1781766581686,-1.0963,8.6238,3.6162,0.1448,-0.7825,0.1686
1781766581726,-0.2398,9.6096,3.2257,0.0745,-0.292,0.1399
1781766581766,1.5155,9.5061,2.2779,0.0819,0.3378,0.121
1781766581806,2.8614,8.1341,-1.182,-0.5137,-0.2547,0.2144
1781766581846,9.1666,-22.5402,-4.2315,-2.3219,0.6884,0.5785
1781766581886,-2.7834,-16.4838,-11.5599,-1.7715,-3.3176,0.8992
1781766581927,-1.9886,-20.8818,3.5808,-0.0617,1.573,-0.1277
1781766581966,3.4915,-8.993,1.3526,2.3201,1.226,-0.7831
1781766582006,0.1819,0.4623,0.9101,1.9383,0.391,-0.3531
1781766582046,5.803,9.5936,-1.3097,0.5907,-0.2773,-0.058
1781766582086,1.2825,9.1137,-0.6531,-1.1344,0.1478,-0.1271
1781766582126,-0.6534,9.91,4.8304,-0.5693,-0.2089,0.1784
1781766582167,-2.0026,8.8488,3.8158,-0.328,-0.1607,0.2327
1781766582206,-2.0076,8.4312,4.8053,0.2706,0.2767,0.427
1781766582246,1.3199,9.4574,2.5052,0.2853,0.3506,0.4581
1781766582286,2.8068,7.884,2.1033,0.0782,0.3348,0.2474
1781766582326,2.3109,7.5112,-1.5319,-0.8558,0.4649,0.2101
1781766582366,6.8107,-19.8391,-5.0681,-3.3537,1.135,0.6304
1781766582406,0.1462,-10.5337,-5.4869,-1.5553,-3.1075,1.5974
1781766582446,-1.0266,-24.769,2.3993,0.4056,0.3293,0.2737
1781766582486,6.9213,-12.009,-0.1427,1.857,0.7672,-0.6426
1781766582526,2.6677,2.4133,0.6686,1.9719,-0.8265,-0.2089
1781766582566,0.2915,10.9729,-0.8958,0.4655,-0.6683,-0.4343
1781766582606,0.829,8.2079,0.8575,-0.9737,0.7758,-0.474
1781766582646,0.6819,9.5386,6.7442,-0.4447,-0.4417,0.1466
1781766582686,-1.509,10.0166,4.9837,-0.1863,-0.9303,0.4985
1781766582726,1.213,8.9866,2.4047,0.1484,-0.8796,0.5339
1781766582766,2.5249,8.9925,3.1307,0.2596,0.0941,0.0403
1781766582806,1.8786,8.3382,2.9347,0.1326,-0.0232,0.0977
1781766582846,4.1807,6.2585,-1.8019,-1.8357,0.4209,0.5486
1781766582886,3.7389,-25.9804,0.6491,-1.4594,-1.8344,-0.0709
1781766582926,4.2488,-22.3768,-2.7988,-2.4105,-2.4722,1.5485
1781766582966,-2.6756,-16.6744,1.3256,0.3506,0.5382,-0.2107
1781766583006,0.0544,-11.799,1.3483,2.2688,0.4154,-0.8992
1781766583046,2.935,-0.3454,0.0049,1.6671,-0.5192,-0.6524
1781766583087,0.664,11.197,1.0141,1.2859,-0.7862,-0.6377
1781766583126,1.1636,9.0541,-4.5645,-0.9902,1.0513,-0.4643
1781766583166,-1.8861,8.9856,5.6143,-0.3696,0.0843,-0.0281
1781766583206,-1.47,8.2524,5.5822,0.1912,-0.5363,0.3946
1781766583246,0.8282,9.7613,3.4112,0.3299,-0.2492,0.2382
1781766583286,4.367,10.4545,2.8725,0.4936,0.4074,-0.055
1781766583326,5.7376,7.8521,1.6278,0.4019,0.27,0.0476
1781766583366,3.3114,-2.0142,-9.6029,-2.2217,1.8295,-0.2853
1781766583406,0.5718,-25.4635,-5.5882,-1.4826,-2.1344,0.2786
1781766583446,-20.1827,-24.149,0.7664,0.4117,0.3653,0.248
1781766583486,0.046,-11.3851,1.1561,1.8686,0.6548,-0.2297
1781766583526,3.6883,-1.422,1.3973,1.7373,-0.3244,0.0397
1781766583566,4.571,9.1495,-2.7125,0.0849,-0.2608,-0.5486
1781766583606,-0.0197,10.3795,-2.2097,-0.8228,0.7569,-0.2358
1781766583646,-1.3159,10.4462,3.879,-0.3054,0.113,0.2682
1781766583686,-0.6214,8.7181,4.9551,0.0012,-0.1723,0.5174
1781766583727,-0.5931,8.824,2.9262,0.1277,-0.1509,0.6829
1781766583766,2.2192,9.6696,3.2808,0.1399,0.0556,0.4643
1781766583806,5.064,9.4136,1.4376,-0.1045,-0.0959,0.1124
1781766583846,5.4766,5.6482,-4.8161,-2.678,0.2053,-0.0617
1781766583886,6.4015,-51.0079,-0.059,-1.3909,-3.0824,0.1252
1781766583926,-0.655,-24.7606,2.9937,0.4636,0.2999,0.1808
1781766583966,-1.9582,-19.7295,-1.7408,1.8864,1.1277,-0.5143
1781766584006,7.0006,-5.5205,0.5164,1.8357,0.3354,-0.6017
1781766584046,1.6848,6.267,-1.7315,0.3042,-0.4129,-0.7758
1781766584087,-2.42,10.915,0.2616,-0.8467,0.6536,-0.328
1781766584126,-0.6302,12.5886,2.4137,-0.5498,0.2724,0.2083
1781766584166,0.9205,9.9409,4.7872,-0.1539,-0.2126,0.4618
1781766584206,-1.2804,7.8835,3.7671,0.1973,0.0348,0.5767
1781766584246,1.3478,7.7567,2.1405,0.1313,0.5919,0.1161
1781766584286,4.6145,9.5207,2.1618,-0.3891,0.1778,0.0501
1781766584326,2.4858,9.1952,1.4721,-1.3812,-0.0043,-0.0067
1781766584366,-1.4272,-2.3545,-10.1011,-1.5968,1.4734,0.4362
1781766584407,-18.3008,-18.3513,0.7765,-1.3702,-0.6878,0.6683
1781766584447,-1.5856,-18.7091,4.4779,1.0965,1.273,-1.2236
1781766584486,1.0778,-11.7717,-1.7443,1.9878,0.3268,-1.2193
1781766584526,-0.1215,-3.0713,-0.0025,1.3121,-0.8406,0.1026
1781766584566,0.4046,7.6858,-1.3709,-0.6103,-0.741,0.1521
1781766584606,-0.3262,11.0713,-1.5488,-1.1716,0.5657,0.5962
1781766584646,2.6488,12.8874,7.6376,-0.0287,0.0495,0.4685
1781766584686,2.0933,9.6128,6.1166,0.7074,-0.2315,0.5693
1781766584726,0.4016,6.7997,5.1774,0.7165,-0.4038,0.4203
1781766584766,1.5605,8.107,1.2166,0.1607,-0.0244,0.0947
1781766584806,-0.1436,8.9804,-2.375,-0.967,0.4936,0.0409
1781766584846,-1.1598,6.6333,-2.7259,-3.2125,1.4374,0.8082
1781766584886,1.7449,-69.5637,-7.7642,-1.9199,-2.7159,2.6964
1781766584926,10.4136,-9.1004,0.457,1.0721,0.0544,-1.5498
1781766584966,-8.1578,-27.4129,5.6251,2.2071,1.6805,-0.8265
1781766585006,7.9931,-6.1428,2.77,2.0867,-0.3531,-0.2523
1781766585046,2.5537,4.4483,0.0336,0.9285,-0.9395,-0.124
1781766585086,3.1782,11.7386,-0.7487,-0.7141,0.1674,-0.5296
1781766585126,1.672,11.1508,1.8542,-0.7758,-0.6384,-0.2908
1781766585166,1.1313,8.0545,3.585,-0.3604,-1.1002,0.0702
1781766585206,-2.3292,6.818,4.363,-0.2816,-0.8161,0.2767
1781766585246,-0.1745,9.9284,4.913,0.1203,-0.0098,0.3512
1781766585286,0.6959,9.9338,4.3195,0.2065,0.0397,0.3525
1781766585327,3.0918,6.8751,3.7109,-0.7257,0.3641,0.237
1781766585366,2.6261,-8.2417,-1.9935,-0.5925,0.9151,-0.3806
1781766585406,-1.906,-10.5358,-7.7037,-0.7446,-1.2462,-0.1833
1781766585446,-14.9854,-30.7936,-1.132,0.529,1.3048,-0.2737
1781766585486,3.7519,-9.1426,0.8809,1.909,0.901,-1.0006
1781766585526,5.8481,-0.2651,0.6756,1.4807,-0.2492,-0.6567
1781766585566,2.6342,8.0281,1.3404,0.5321,-0.6854,-0.2926
1781766585606,-0.6166,9.3475,-0.9128,-0.7782,0.0874,-0.0177
1781766585646,-1.0496,9.6648,3.3338,-0.2126,-0.2089,0.2749
1781766585686,1.8462,8.823,5.4148,0.0275,-0.3525,0.1674
1781766585726,1.8365,8.7623,3.004,0.0049,-0.6396,-0.0104
1781766585766,0.3739,9.6453,3.1659,0.2828,-0.6524,0.1417
1781766585806,1.2568,8.8159,2.2709,0.022,-0.2492,0.4099
1781766585846,4.0542,6.5326,-1.9068,-1.4661,-0.1002,0.4545
1781766585886,9.2542,-19.659,-2.1385,-0.2291,0.6591,-0.697
1781766585926,-8.0382,-16.5153,-6.7301,-0.5107,0.2254,0.0397
1781766585966,-5.9674,-16.8464,0.609,1.6341,2.4563,-0.6524
1781766586006,6.8615,-11.2114,0.257,1.8326,0.7538,-0.6316
1781766586046,6.254,0.105,0.6704,1.0996,-0.4129,-0.3225
1781766586086,2.285,9.6361,1.6639,-0.1588,-0.0434,-0.3977
1781766586126,-0.3176,10.2837,-0.7109,-0.7917,0.5461,-0.0971
1781766586166,2.0535,9.3477,4.2226,-0.3842,-0.2077,0.0568
1781766586206,0.3595,7.793,4.0706,-0.2114,-0.7349,0.1155
1781766586246,-1.2797,8.841,2.7444,-0.2028,-0.3366,0.2297
1781766586287,1.1326,10.2329,2.5265,-0.0929,0.3757,0.3622
1781766586326,1.5594,8.737,2.5268,-0.3793,0.1057,0.5895
1781766586366,3.3834,3.663,-3.589,-2.157,0.471,0.8815
1781766586407,17.8041,-31.4164,9.432,-2.2492,-1.6805,-0.507
1781766586446,-0.0076,-20.1264,0.0057,-0.73,-0.259,0.0935
1781766586486,-3.3078,-14.5266,2.5378,2.3836,2.2895,-0.7416
1781766586527,3.3373,-11.826,1.3047,2.3268,1.1906,-0.6732
1781766586567,5.0379,-0.3998,0.5022,1.5913,-0.3537,-0.3647
1781766586606,2.0022,9.4069,0.2719,0.2413,0.0073,-0.5015
1781766586647,0.1619,10.3715,-1.9805,-0.8259,0.6011,-0.2511
1781766586686,0.0721,9.2608,2.8357,-0.4771,-0.4044,0.0354
1781766586726,-0.7525,7.4883,4.5438,-0.3451,-0.6866,0.2205
1781766586766,-1.9499,8.7475,4.5701,-0.124,-0.1906,0.3995
1781766586806,-0.102,10.2756,2.4997,0.011,0.504,0.4881
1781766586846,1.5165,8.7617,4.0172,-0.0134,0.8375,0.7471
1781766586886,2.6188,3.7449,-4.6639,-1.6249,1.0287,0.92
1781766586926,16.2893,-49.1983,-3.8309,-2.427,-2.7843,0.6023
1781766586966,-1.324,-17.2421,4.0282,-0.2883,-0.6139,-0.1686
1781766587006,-9.4213,-18.9192,3.1406,2.3903,1.0672,-0.7172
1781766587046,2.5084,-8.2083,1.9903,2.1368,0.3048,-0.5382
1781766587087,5.1949,1.4851,0.2496,1.3201,-0.5669,-0.5754
1781766587126,0.7592,11.7749,1.5687,0.0525,-0.0721,-0.5278
1781766587166,0.5841,10.4246,-2.221,-0.7459,0.3231,-0.1319
1781766587207,0.0994,7.4768,1.9979,-0.3555,-0.7202,0.3671
1781766587246,-3.0349,7.6414,5.9998,0.0061,-0.7575,0.9279
1781766587286,-2.1803,9.4324,2.8736,0.0067,-0.0171,0.7898
1781766587326,2.1656,10.0381,3.6764,-0.0599,0.6512,0.2987
1781766587366,3.244,8.1176,3.1682,-0.5198,0.3616,0.2572
1781766587406,2.0757,-0.3926,-11.476,-1.2511,0.4313,0.3134
1781766587446,7.8613,-31.2886,4.2298,-1.6689,-2.8485,0.0525
1781766587486,-15.5683,-29.3759,-3.5039,0.1784,0.3928,0.372
1781766587526,1.2009,-13.7556,1.5202,1.9841,1.1301,-0.8638
1781766587567,6.8485,-5.5258,0.8269,1.8051,-0.6469,-0.4636
1781766587606,1.6044,4.714,-0.4957,0.9548,-0.9389,-0.4508
1781766587646,-1.5099,9.5844,0.0408,-0.4649,0.3079,-0.5131
1781766587686,-1.1897,10.4194,-0.5811,-0.4319,0.2779,-0.0195
1781766587726,0.4222,8.7107,4.4872,-0.2071,-0.3286,0.5113
1781766587766,0.1425,8.492,3.7093,-0.3195,-0.609,0.5327
1781766587806,-0.6956,8.8248,3.4237,-0.1576,-0.3305,0.4447
1781766587847,0.5465,9.4031,1.9974,-0.1943,0.0562,0.5101
1781766587886,2.9219,8.5498,2.3902,-0.7984,0.4557,0.3238
1781766587926,4.0116,-0.626,-13.698,-0.868,1.0641,0.212
1781766587966,-10.9627,-25.9608,-5.7732,-2.033,-2.1722,1.496
1781766588007,-8.3174,-20.6745,0.8054,0.4881,1.138,-0.2309
1781766588046,1.5438,-14.0919,2.463,2.3408,0.92,-1.16
1781766588086,2.2666,-6.2546,1.2372,1.6469,-0.1851,-0.5021
1781766588126,1.9223,5.3626,0.4808,0.8259,-0.5302,-0.3555
1781766588166,-0.4932,10.9611,0.3556,-0.1222,0.394,-0.3005
1781766588207,0.3558,10.3929,0.3653,-0.5467,0.135,0.0
1781766588246,0.5676,8.5027,4.2034,-0.3201,-0.3256,0.1741
1781766588286,-1.3657,7.9358,3.7053,-0.2071,-0.5205,0.4239
1781766588326,0.4108,8.529,3.3124,-0.0605,-0.1313,0.3818
1781766588366,0.3074,9.2429,2.2984,-0.3012,0.1503,0.4007
1781766588407,3.0065,6.3186,0.2716,-1.3665,0.7617,0.5944
1781766588446,5.9768,-9.1676,-0.6103,-1.3891,0.9487,0.1118
1781766588486,-6.1062,-13.224,-4.6005,-0.8247,-2.7978,0.6732
1781766588526,-16.5656,-22.8079,-0.4992,0.843,1.9554,-0.9969
1781766588566,3.1222,-12.4052,3.9507,2.2449,0.9865,-1.1014
1781766588606,5.7582,-4.0343,1.1027,1.6542,-1.1222,-0.3262
1781766588646,-0.1641,7.134,-0.0513,0.8326,-0.8271,-0.496
1781766588686,-0.7206,10.9377,-0.4753,-0.3079,0.9841,-0.3983
1781766588726,1.0876,10.0445,0.9614,-0.3983,0.1045,0.0996
1781766588766,0.4296,8.5442,3.9677,-0.3629,-0.6188,0.2352
1781766588806,-1.5627,7.9339,4.2315,-0.0415,-0.4337,0.4172
1781766588846,0.1047,9.6716,3.2621,-0.0165,-0.0171,0.259
1781766588886,1.1794,9.7458,1.1209,-0.2107,0.2395,0.3396
1781766588926,2.8892,4.8345,-1.4429,-1.9163,0.5803,1.0482
1781766588966,18.3628,-29.8138,5.6031,-1.7849,-1.8906,-0.2211
1781766589006,2.9169,-14.9454,0.4907,-0.6952,-0.5883,0.2608
1781766589046,-5.9242,-15.0918,1.4907,1.7226,1.3922,-0.6579
1781766589086,1.2811,-13.6616,0.8145,2.1466,0.8888,-0.5736
1781766589126,5.1049,-2.592,-0.1136,1.5296,-0.2975,-0.303
1781766589166,2.0513,8.4076,0.1063,0.5449,-0.5302,-0.5388
1781766589206,-1.5081,11.3535,-1.1503,-0.664,0.8204,-0.3482
1781766589246,0.8252,9.6263,2.2604,-0.4966,0.2792,0.1326
1781766589286,1.1485,8.2222,4.5979,-0.4349,-0.2841,0.2089
1781766589326,-1.2622,8.0523,4.4133,-0.1686,-0.4423,0.3476
1781766589366,-0.2103,9.2879,2.4438,-0.1271,0.0617,0.358
1781766589407,0.8148,9.0286,2.2084,-0.1307,0.6078,0.6151
1781766589446,3.268,4.6811,-3.7431,-2.4526,0.6304,1.0397
1781766589486,11.7537,-48.1875,-2.8038,-2.3732,-2.7019,0.8894
1781766589526,3.3658,-10.0056,4.3429,-0.303,-0.1545,-0.0867
1781766589566,-6.6474,-18.2331,1.1317,1.8271,1.678,-0.7153
1781766589607,5.0405,-13.3007,1.2292,1.978,0.4924,-0.9291
1781766589646,3.0144,-0.4044,0.2682,1.4282,-0.7947,-0.3158
1781766589687,0.1045,9.3945,1.2025,0.3512,-0.6371,-0.4184
1781766589727,1.3844,12.4222,-1.0107,-0.5742,0.5999,-0.4533
1781766589766,0.8783,9.9725,2.0169,-0.35,-0.3067,0.025
1781766589807,0.0948,7.8312,4.2702,-0.3024,-0.4966,0.0159
1781766589846,-3.6435,7.0286,5.0464,0.0214,-0.1576,0.4111
1781766589886,-1.5881,9.5661,1.9005,-0.1936,0.3274,0.5443
1781766589926,1.3638,8.8315,3.1903,-0.3451,1.1167,0.6219
1781766589966,3.8464,3.741,-4.5512,-1.8014,0.9969,0.8882
1781766590007,13.2211,-44.8962,0.0521,-1.9316,-2.6994,1.2132
1781766590046,-1.2872,-21.8675,-0.32,-0.4722,-0.0983,0.036
1781766590086,-3.5295,-16.5041,2.8484,1.8149,1.2871,-0.9933
1781766590126,2.6134,-7.27,2.0156,2.259,0.0202,-0.3403
1781766590166,2.8533,0.2853,0.4988,1.733,-0.6347,-0.0611
1781766590207,2.1668,10.2561,-0.8099,0.3867,-0.1906,-0.6695
1781766590247,-0.3356,9.5798,-3.5913,-0.6365,0.8961,-0.2199
1781766590286,-0.6022,8.2225,2.9655,-0.1704,-0.1973,0.3616
1781766590326,-1.2768,8.9326,5.9923,-0.1387,-0.3464,0.6817
1781766590367,0.536,8.9735,3.2417,0.0018,-0.4154,0.5424
1781766590407,2.5318,9.4305,2.8969,-0.0379,-0.1729,0.4252
1781766590446,2.8868,7.3312,1.3916,-0.6579,0.0892,0.5846
1781766590486,2.591,-1.4267,-8.7748,-1.2553,0.945,-0.0898
1781766590526,-6.4669,-29.5003,-9.2896,-2.4154,-2.3787,0.7953
1781766590566,-12.8828,-16.4516,-0.7609,0.8234,1.3451,-0.1802
1781766590606,-2.3708,-15.0848,1.9826,2.496,1.7135,-0.7495
1781766590646,5.182,-7.4163,1.2063,1.7831,0.4111,-0.595
1781766590686,4.5032,4.0256,-0.2365,1.0018,-0.4661,-0.5247
1781766590726,-0.4288,10.488,1.6209,-0.066,-0.358,-0.3891
1781766590766,-0.9533,10.5924,-0.3945,-0.6445,0.562,-0.1741
1781766590806,-0.1442,7.7603,2.2028,-0.5999,-0.5107,0.1429
1781766590846,0.9291,7.36,4.3612,-0.6469,-0.4985,0.1998
1781766590886,-0.7215,8.4572,3.1771,-0.3659,-0.4056,0.3085
1781766590926,-1.5529,9.6834,2.949,-0.3965,0.1906,0.4814
1781766590966,1.9199,7.137,-1.9359,-1.8986,0.9975,0.6536
1781766591006,24.6013,-25.839,5.1431,-1.4997,-1.0983,-0.8803
1781766591046,-2.7013,-17.701,-4.2736,-0.6994,-0.11,0.931
1781766591086,-4.1688,-13.2406,3.5586,2.0983,1.2718,-0.576
1781766591126,-1.1681,-13.6678,1.8438,2.2272,0.8662,-0.3684
1781766591166,6.2579,-0.8441,0.5629,1.7281,-0.3958,-0.1967
1781766591207,1.9993,9.8556,-0.3347,0.5534,-0.7275,-0.5424
1781766591246,-1.2487,12.0368,-0.5499,-0.631,0.9218,-0.4117
1781766591286,-1.1445,7.779,0.7782,-0.6634,0.2114,0.1833
1781766591326,-1.0861,7.3742,5.0559,-0.496,-0.8057,0.5522
1781766591366,-0.0189,8.9344,4.6387,-0.4129,-0.7782,0.4581
1781766591407,-0.4165,9.7608,2.0978,-0.5302,-0.336,0.4239
1781766591446,2.3096,8.2575,3.1681,-0.4966,0.7318,0.394
1781766591486,5.3796,-0.0495,-5.5109,-0.8076,0.672,-0.1961
1781766591526,0.1869,-26.1283,-5.8357,-1.8473,-3.135,0.099
1781766591566,-15.8004,-23.3785,-0.573,0.0947,0.5913,-0.5302
1781766591606,-3.9725,-11.2184,5.2779,2.281,0.989,-0.7104
1781766591647,0.8475,-2.6012,3.5855,2.1747,0.2841,-0.0794
1781766591686,5.6711,5.1638,-0.0286,1.3335,-0.3097,-0.3189
1781766591726,2.0121,9.5193,-2.8606,-0.3183,-0.2712,-0.5877
1781766591766,-1.4895,9.6643,-0.7291,-0.631,0.2059,-0.0819
1781766591806,-2.2314,8.274,3.8122,-0.223,-0.3079,0.6133
1781766591846,-0.6134,8.4655,6.4177,-0.0629,-0.493,0.7611
1781766591887,-0.2132,9.4206,3.166,0.0996,-0.0562,0.4349
1781766591926,1.1194,8.118,2.8707,-0.1851,0.7324,0.3293
1781766591966,3.203,-0.5107,-8.6953,-0.9908,1.3207,0.5516
1781766592006,3.108,-29.336,-3.0932,-2.1191,-2.4569,0.7019
1781766592047,-4.7044,-21.629,1.3858,0.1136,0.6255,-0.5669
1781766592087,-6.4319,-13.2317,1.894,2.0635,1.73,-0.5547
1781766592126,3.2104,-4.2559,3.2118,1.8118,0.0843,-0.055
1781766592166,5.412,5.2089,-0.0261,1.0513,-0.6371,-0.2053
1781766592207,1.2777,10.3417,-0.5112,-0.3201,-0.1026,-0.5443
1781766592247,-0.6787,10.0056,-0.8678,-0.6854,0.4111,-0.2327
1781766592286,-1.0145,7.6597,3.6631,-0.2938,-0.3378,0.2205
1781766592326,-0.3446,8.2,6.0856,-0.2889,-0.6115,0.4386
1781766592366,-0.1478,9.4694,1.8611,-0.3256,-0.3989,0.3592
1781766592407,1.1301,8.9752,1.7461,-0.4704,0.6701,0.3598
1781766592446,3.02,-0.9448,-6.9214,-0.8137,1.6536,0.4392
1781766592486,3.247,-23.6171,-3.6728,-2.2449,-3.1429,0.6463
1781766592526,-8.2332,-20.7412,3.7902,0.2865,0.4979,-0.5999
1781766592566,-6.1687,-13.5463,2.7326,1.9627,1.8845,-0.9523
1781766592606,2.4861,-3.8282,3.4611,1.6652,0.3653,-0.2401
1781766592646,3.9632,5.9128,0.7416,1.0855,-0.3378,-0.4068
1781766592686,0.9838,10.341,-2.1417,-0.3286,-0.259,-0.551
1781766592726,-1.1523,9.9474,-0.1047,-0.7153,0.0092,-0.0446
1781766592766,-1.2448,7.8774,4.2128,-0.5217,-0.4838,0.5779
1781766592807,-0.8405,8.3012,5.6728,-0.1631,-0.5027,0.6774
1781766592846,-0.5904,9.1009,4.569,0.1582,0.1368,0.405
1781766592886,0.4676,8.9762,2.1506,-0.4062,0.4979,0.157
1781766592926,4.8032,-4.8635,-7.648,-0.8296,1.4532,0.3745
1781766592966,-3.1216,-17.4284,-2.0432,-2.226,-2.306,0.2285
1781766593006,-9.6227,-20.9913,2.4956,0.3286,0.1277,-0.7043
1781766593046,-7.1129,-9.4909,0.9478,2.1863,2.1276,-0.4246
1781766593086,4.4175,-2.8699,2.5837,1.7281,0.5864,-0.2211
1781766593126,6.3262,6.9855,-1.2526,0.664,-0.8864,-0.2596
1781766593166,-0.0142,10.4667,-0.8847,-0.3708,-0.1484,-0.2083
1781766593207,-0.9477,10.1512,1.7682,-0.4673,-0.0421,-0.0861
1781766593246,-1.2898,8.0179,3.3098,-0.3616,-0.1943,0.2786
1781766593286,-0.9801,7.1966,3.9224,-0.325,-0.3054,0.5034
1781766593326,0.2225,9.0872,3.8684,-0.234,-0.0165,0.4838
1781766593366,2.3455,8.2981,1.2636,-1.0,0.672,0.631
1781766593407,4.606,-9.9647,1.667,-0.5919,0.8882,-0.2981
1781766593446,1.2506,-9.9244,-11.062,-1.2187,-1.9548,0.3971
1781766593486,-10.6305,-22.8873,0.0365,0.7074,0.989,-0.5308
1781766593526,0.2215,-11.4711,1.7351,2.0629,0.9322,-1.0214
1781766593566,1.1598,-1.9342,1.4416,1.4209,0.1545,-0.6219
1781766593607,2.49,7.0394,0.0072,0.7251,-0.7202,-0.4734
1781766593646,-2.0799,11.148,-1.106,-0.3238,-0.11,-0.0727
1781766593686,-1.4833,9.1091,-0.1247,-0.6958,0.4862,0.2101
1781766593726,-1.5016,8.3646,3.5631,-0.2804,-0.066,0.4081
1781766593766,0.5261,9.0607,4.9102,-0.0324,-0.2291,0.3445
1781766593806,0.9647,9.5619,2.5069,0.1136,0.3219,0.1808
1781766593846,3.1102,8.2339,0.5902,-1.0153,0.9047,-0.1539
1781766593887,5.4791,-11.142,-3.4038,-0.7355,0.2682,-0.8955
1781766593926,-10.8747,-11.3776,-4.2808,-0.5363,-1.755,0.3134
1781766593966,-17.2445,-19.8726,-1.3508,1.405,1.4704,-0.1264
1781766594006,-1.2394,-8.1157,-0.707,1.6084,1.4655,-0.3262
1781766594046,5.4799,0.611,0.7995,1.1942,0.2077,-0.1491
1781766594086,3.4882,9.2481,0.6183,-0.2963,0.0122,-0.3928
1781766594126,-2.2555,11.2598,0.1797,-0.7385,0.4081,0.2938
1781766594166,-1.0656,9.4854,4.5417,-0.2993,0.0696,0.7831
1781766594207,1.1165,7.5138,3.658,-0.2578,0.0739,0.6188
1781766594247,0.8078,8.4359,4.4585,-0.1851,-0.4942,0.4814
1781766594287,0.3873,9.1447,2.3002,-0.3574,-0.1515,0.6817
1781766594326,1.2925,7.2575,-1.8803,-1.8234,0.2517,0.7135
1781766594366,7.2779,-14.1095,-2.792,-0.5253,-0.014,-0.65
1781766594406,2.3754,-10.2244,-7.5356,-0.482,-0.1594,-0.3274
1781766594446,-7.0129,-17.7303,-0.4323,1.088,1.4856,-1.1063
1781766594486,3.0581,-9.6712,2.109,1.8503,0.4691,-0.7526
1781766594526,1.9136,0.822,1.3944,1.4679,-0.3787,0.0745
1781766594566,2.656,9.0281,1.2262,0.4698,-0.317,-0.394
1781766594606,0.81,11.0538,-0.4818,-0.4386,0.1045,-0.2413
1781766594646,0.5158,7.9501,2.3239,-0.6164,-0.3519,0.1264
1781766594686,-0.5285,7.6006,5.6697,-0.4502,-0.6066,0.3684
1781766594726,-0.6096,8.5355,2.7831,-0.4954,-0.8277,0.5235
1781766594766,2.0658,9.0193,3.4123,-0.3079,-0.1319,0.4844
1781766594806,1.6393,5.6195,-3.6011,-1.4642,0.204,0.7251
1781766594846,15.2343,-30.8726,-2.1707,-1.4985,-1.5626,-0.2926
1781766594886,-1.4816,-15.9553,-0.9021,-0.4991,-1.0037,-0.2462
1781766594926,-2.5184,-13.8025,1.1199,1.562,0.9597,-0.7862
1781766594966,-1.1205,-8.1202,1.3649,1.8943,0.6561,-0.5296
1781766595006,2.1971,2.3091,1.8834,1.2504,0.5382,-0.5541
1781766595046,2.7708,9.6189,1.3958,0.8033,0.0031,-0.5663
1781766595086,-0.8601,11.255,-0.3682,-0.3128,0.5883,-0.3531
1781766595126,-0.1871,8.4556,1.8545,-0.4191,0.5571,0.0959
1781766595166,-0.6816,7.3221,4.0804,-0.3867,-0.3048,0.416
1781766595206,0.2974,8.3984,3.8513,-0.3207,-0.6787,0.4319
1781766595246,0.6029,9.5521,0.8854,-0.4875,-0.3348,0.358
1781766595287,3.8566,5.8219,-0.8658,-1.4557,1.1637,0.248
1781766595326,13.4604,-47.3637,8.0063,-1.5033,-2.5632,-0.1014
1781766595366,-1.9881,-18.5436,0.6258,0.0434,0.2132,-0.752
1781766595406,-9.2259,-15.5402,1.2677,2.0201,1.5241,-0.2297
1781766595447,2.4067,-4.6503,1.0997,1.6622,0.5467,0.0
1781766595486,4.4518,3.3767,1.1159,0.9688,-0.2651,0.2621
1781766595526,3.9663,10.1386,-0.1438,-0.336,-0.5009,-0.1093
1781766595566,0.9812,11.8664,0.2034,-0.846,0.1796,-0.066
1781766595607,0.3172,7.7349,3.277,-0.394,-0.5315,0.1038
1781766595646,-1.0172,5.9202,4.4537,-0.2101,-0.8173,0.2914
1781766595686,-2.9013,8.4737,3.0419,-0.1466,-0.4136,0.81
1781766595726,-1.3304,9.7864,3.699,-0.3586,0.5809,0.7935
1781766595766,0.784,5.9232,-6.595,-1.6933,0.8693,0.8668
1781766595806,21.2443,-48.952,5.4882,-1.6298,-3.2858,0.2816
1781766595846,0.6366,-17.3744,0.8816,-0.1772,-0.0611,-0.4539
1781766595886,-7.3984,-14.3568,1.4765,1.7904,1.6182,-0.8418
1781766595926,3.8317,-8.3667,0.8247,2.0317,0.069,-0.1765
1781766595966,2.9561,1.649,0.0198,1.102,-0.394,-0.0092
1781766596006,3.3119,9.1982,-0.3257,-0.2535,-0.1607,-0.5614
1781766596046,0.38,9.5729,-0.4615,-0.7953,0.4826,-0.248
1781766596086,0.0732,7.7519,3.922,-0.4032,-0.2834,0.1521
1781766596126,-0.4566,9.974,5.792,-0.1772,-0.6738,0.3115
1781766596167,-1.0268,10.1132,4.2963,0.1442,-0.5376,0.5217
1781766596206,-0.5583,9.7442,2.6264,-0.0079,-0.1234,0.4594
1781766596247,2.0765,5.8695,-1.8251,-1.5186,0.7336,0.5382
1781766596286,8.5612,-16.453,-0.1427,-0.9139,0.4862,-0.7165
1781766596326,-2.0903,-12.6267,-11.7456,-0.0593,-0.8387,0.0898
1781766596366,-12.1194,-22.8223,-0.9992,1.2285,2.2443,-0.9108
1781766596406,4.6627,-11.2337,1.9797,2.303,0.8179,-0.6139
1781766596446,3.1653,-0.022,1.3348,1.9041,-0.256,-0.0177
1781766596487,3.2564,9.5802,-0.175,0.3512,0.4019,-0.7776
1781766596526,2.1232,9.1563,-1.5372,-0.5394,0.4966,-0.5229
1781766596566,0.384,8.1712,3.8722,-0.4856,-0.4142,0.0275
1781766596606,-1.841,7.4639,3.6344,-0.6646,-0.5651,0.2309
1781766596646,-2.3605,8.8282,3.3834,-0.2498,-0.2425,0.4661
1781766596686,0.279,10.627,3.1761,-0.1222,0.1179,0.6139
1781766596726,0.9093,8.6371,4.1388,-0.2291,0.0574,0.719
1781766596766,3.0098,5.1128,-3.2088,-2.2278,0.1741,0.8809
1781766596806,15.7837,-34.4159,3.6982,-1.7147,-1.54,-0.3103
1781766596846,3.2052,-20.389,-3.2501,-0.8296,-0.7373,-0.3439
1781766596886,-9.7683,-16.483,1.8787,1.5516,1.4032,-1.2584
1781766596927,-0.1227,-8.4601,2.1003,2.1362,0.3842,-0.5938
1781766596966,0.1411,1.836,1.5045,1.8045,-0.2285,0.3403
1781766597007,4.2531,9.8,-0.0228,0.2236,0.1045,-0.135
1781766597047,3.1027,9.9533,-2.6721,-0.6548,0.2169,-0.2822
1781766597086,0.6018,7.8764,3.8891,-0.5681,-0.6029,-0.1258
1781766597126,-1.1048,8.5072,4.8622,-0.3629,-0.8387,0.2334
1781766597166,-4.2299,9.2379,4.1734,-0.0018,-0.3305,0.584
1781766597207,-1.7804,9.1397,3.3783,0.2248,0.6371,0.6756
1781766597246,2.4443,6.2053,4.1953,-0.5846,0.5266,0.317
1781766597287,6.3638,-6.2021,-8.6359,-1.2016,-0.2908,0.2034
1781766597326,-2.7613,-14.1725,4.697,-2.543,-2.5992,0.6524
1781766597366,-11.6241,-21.9398,-2.2842,-0.2914,1.2175,-0.9395
1781766597406,-3.0655,-13.2807,3.3449,2.474,1.4392,-0.4972
1781766597447,0.3613,-5.9392,2.2201,2.3812,0.124,-0.0428
1781766597486,5.2833,5.1603,-0.0288,1.35,-0.3787,-0.2138
1781766597527,2.1094,8.6463,-2.8363,-0.5663,0.6707,-0.5767
1781766597566,-1.4736,7.7734,0.8679,-0.7227,0.1124,0.1991
1781766597607,-0.2996,9.4225,6.2481,-0.2944,-0.6555,0.4856
1781766597646,0.9456,10.804,4.5939,-0.1979,-0.4893,0.4105
1781766597686,0.6463,8.3383,2.3765,0.3036,-0.1869,0.3684
1781766597726,0.6463,8.3383,2.3765,0.3855,0.2981,0.4221
1781766597766,17.6131,-40.5283,-0.012,-0.6066,0.7453,-0.5883
1781766597806,17.6131,-40.5283,-0.012,-2.0977,-1.8491,0.1374
1781766597846,-4.5787,-21.6663,3.9296,-0.4282,0.2224,0.2731
1781766597887,-1.9955,-12.9191,3.3911,1.6683,1.6805,-1.1545
1781766597926,1.8239,3.0996,2.0998,1.2999,0.0177,-0.3152
1781766597966,1.8239,3.0996,2.0998,1.1716,-0.0971,-0.066
1781766598006,0.3774,11.2812,0.2226,-0.4044,0.3091,-0.1668
1781766598047,0.3774,11.2812,0.2226,-0.6292,0.4581,-0.0153
1781766598086,0.8811,7.0411,5.9508,-0.4239,-0.6744,0.2376
1781766598126,0.8811,7.0411,5.9508,-0.3567,-0.8467,0.1796
1781766598167,-0.6989,7.7441,2.2619,-0.3164,-0.9853,0.0965
1781766598206,0.4178,8.7415,0.7551,-0.5809,-0.1295,0.0574
1781766598247,9.1553,-51.106,1.2909,-0.7233,0.1283,-0.6903
1781766598286,9.1553,-51.106,1.2909,-1.821,-3.3152,0.6762
1781766598327,-7.175,-18.0142,2.9114,0.237,0.6322,-0.3855
1781766598366,-8.5117,-13.6747,2.6573,2.43,2.43,-0.2645
1781766598406,7.1696,5.1336,-1.1434,1.6945,-0.0574,0.0605
1781766598446,7.1696,5.1336,-1.1434,0.8668,-0.5877,-0.1631
1781766598486,-1.2216,10.0043,1.3493,-0.8748,0.1863,-0.1991
1781766598526,-1.2216,10.0043,1.3493,-0.7471,-0.0086,0.0825
1781766598566,-2.0266,8.0635,5.1499,-0.1765,-0.1503,0.3439
1781766598606,-2.0266,8.0635,5.1499,-0.0061,-0.1613,0.4227
1781766598646,0.9312,8.5911,1.4506,-0.0092,0.011,0.4551
1781766598686,0.9312,8.5911,1.4506,-0.3922,0.1539,0.4649
1781766598726,5.3595,-14.5796,-1.1361,-1.832,-1.7367,-0.5602
1781766598766,5.3595,-14.5796,-1.1361,-2.9126,-2.2584,-0.204
1781766598806,-7.9897,-15.2997,1.2241,1.6689,1.1472,-0.8821
1781766598846,-7.9897,-15.2997,1.2241,2.2101,1.6475,-0.5773
1781766598886,2.2279,2.2522,0.5699,1.1368,0.201,-0.0574
1781766598927,2.2279,2.2522,0.5699,0.7764,-0.036,0.1075
1781766598966,1.264,11.1866,0.784,-0.5705,0.2541,-0.2303
1781766599006,1.264,11.1866,0.784,-0.6151,0.3176,-0.0489
1781766599047,-1.1327,7.6549,4.7125,-0.4191,-0.6671,0.3213
1781766599086,-1.1327,7.6549,4.7125,-0.2077,-1.0079,0.4148
1781766599126,-1.6079,9.6735,1.1099,0.0977,0.0208,0.617
1781766599166,-1.6079,9.6735,1.1099,-0.1857,0.4099,0.6035
1781766599206,17.4132,-40.9069,-6.3941,-1.4484,2.3854,0.2358
1781766599246,17.4132,-40.9069,-6.3941,-1.9047,-2.7422,0.4728
1781766599286,-13.3647,-18.8488,3.5253,0.9035,1.1099,-1.6994
1781766599326,-13.3647,-18.8488,3.5253,2.1863,1.9981,-0.6402
1781766599366,4.6428,1.8087,0.6518,1.89,-0.1271,0.0299
1781766599406,4.6428,1.8087,0.6518,1.2633,-0.6475,-0.0275
1781766599446,0.174,9.4459,-0.7162,-0.6384,0.4227,-0.5137
1781766599486,0.174,9.4459,-0.7162,-0.9224,0.5412,-0.2615
1781766599526,-1.6028,9.6069,7.0494,-0.2059,-0.3256,0.2822
1781766599566,-1.6028,9.6069,7.0494,-0.223,-0.4612,0.2834
1781766599606,-0.9622,8.4658,2.6062,0.1552,-0.1411,0.4924
1781766599646,-0.9622,8.4658,2.6062,-0.0122,0.0721,0.5968
1781766599686,7.9629,-13.5659,1.083,-1.5272,0.664,1.1057
1781766599726,7.9629,-13.5659,1.083,-1.0385,0.9731,-0.5528
1781766599766,-8.5651,-16.1425,-0.1861,0.0617,0.1478,-0.2364
1781766599807,-8.5651,-16.1425,-0.1861,1.3451,1.2865,-0.9798
1781766599846,3.2415,-1.6115,1.7328,2.1906,0.2437,-0.4514
1781766599886,3.2415,-1.6115,1.7328,1.6988,-0.1051,-0.4539
1781766599926,-0.5483,9.8714,-2.2566,-0.3268,-0.1545,-0.664
1781766599966,-0.5483,9.8714,-2.2566,-0.8344,0.2132,-0.3659
1781766600006,-2.7393,9.0646,5.387,-0.4166,-0.2749,0.3176
1781766600046,-2.7393,9.0646,5.387,-0.2822,-0.3213,0.6133
1781766600086,1.5563,9.4878,2.6582,0.1509,-0.1142,0.4753
1781766600126,1.5563,9.4878,2.6582,0.1429,-0.1301,0.3219
1781766600166,3.0445,2.0592,-4.6956,-1.2773,0.0855,0.0953
1781766600206,3.0445,2.0592,-4.6956,-2.3689,-0.1234,0.5467
1781766600246,-9.6875,-20.0063,2.6546,-0.5626,-1.8167,0.3592
1781766600286,-9.6875,-20.0063,2.6546,0.3036,0.6481,-0.0067
1781766600326,6.9535,-7.3413,1.361,1.9621,0.8509,-1.2016
1781766600366,6.9535,-7.3413,1.361,1.5711,-0.0965,-0.978
1781766600406,-1.6805,9.7779,2.1583,0.2621,-0.5742,-0.4062
1781766600447,-1.6805,9.7779,2.1583,-0.1778,0.1918,-0.3054
1781766600486,-0.3026,7.8203,3.6236,-0.3219,-0.4239,0.2767
1781766600526,-0.3026,7.8203,3.6236,-0.2792,-0.3977,0.2938
1781766600566,-0.6855,9.5172,2.992,-0.2388,-0.2077,0.2468
1781766600606,-0.6855,9.5172,2.992,-0.1203,-0.1478,0.35
1781766600646,2.5383,6.194,-0.5961,-0.3525,-0.0678,0.6665
1781766600687,2.5383,6.194,-0.5961,-1.1716,0.8259,0.7691
1781766600726,-4.2908,-16.0673,-9.7563,-2.2688,-2.9987,1.2205
1781766600766,-4.2908,-16.0673,-9.7563,-1.3518,-0.6634,0.1894
1781766600806,1.4955,-11.3559,-0.9636,2.8924,1.8882,-0.4484
1781766600847,1.4955,-11.3559,-0.9636,2.3476,1.2779,-0.5486
1781766600886,3.8134,9.1604,-0.3354,1.1545,-0.4362,-0.493
1781766600926,3.8134,9.1604,-0.3354,0.6683,-0.6176,-0.7416
1781766600966,-0.1004,7.7769,0.9417,-0.5797,-0.1662,-0.2297
1781766601007,-0.1004,7.7769,0.9417,-0.4924,-0.3018,0.069
1781766601046,-3.0561,9.6181,4.3036,-0.5015,-0.7709,0.4215
1781766601087,-3.0561,9.6181,4.3036,-0.2285,-0.5583,0.4172
1781766601126,3.6393,9.4663,1.9533,-0.0189,-0.3702,0.2993
1781766601166,2.4385,2.3632,-10.3443,-1.0788,0.0965,-0.0965
1781766601206,-11.2663,-45.4288,-7.7684,-1.0574,-0.7367,-0.5785
1781766601246,-2.6878,-15.53,3.6025,-0.8955,0.3073,0.5174
1781766601287,-3.9165,-11.3214,1.2697,2.562,1.8002,-0.4459
1781766601327,-3.9165,-11.3214,1.2697,2.5516,2.0128,-0.7288
1781766601366,3.0716,6.5566,-0.0414,1.014,-0.033,0.0318
1781766601407,3.0716,6.5566,-0.0414,0.4502,-0.6329,-0.036
1781766601446,-2.4343,7.8532,1.3812,-0.8827,0.0165,-0.3103
1781766601486,-2.7264,6.6023,4.3798,-0.5223,0.0428,0.1998
1781766601526,-2.4358,9.1121,5.0591,0.0208,0.1484,0.6329
1781766601566,0.6116,10.0956,2.0076,-0.1949,0.0208,0.5473
1781766601606,1.8809,7.6171,0.5124,-0.1448,-0.0702,0.4643
1781766601646,4.2197,-0.1737,-9.7037,-1.7477,0.6335,0.2847
1781766601686,-18.6269,-34.5192,-6.5917,-2.281,-1.6829,-0.788
1781766601726,-3.5864,-7.0292,1.3744,-0.4972,0.4667,0.0794
1781766601766,-11.0713,-19.5355,3.4939,2.4972,1.8747,-0.0153
1781766601806,6.7183,-5.161,0.4758,1.8399,0.438,-0.1008
1781766601846,6.1062,6.4004,-1.8442,0.9108,-0.3873,0.0104
1781766601886,3.0879,12.1848,0.7726,-0.5486,-1.1112,-0.2767
1781766601926,-1.0976,9.4839,2.5394,-0.9181,-0.3879,0.1234
1781766601966,-1.319,8.1828,5.5233,-0.3977,-0.7306,0.2517
1781766602006,-0.9193,7.8868,3.8352,-0.11,-0.598,0.2395
1781766602046,-1.6965,8.555,2.6215,-0.1258,0.055,0.5015
1781766602087,1.6539,8.0909,1.8691,-0.4856,0.2669,0.6139
1781766602126,5.829,-0.6046,-7.8375,-2.3787,0.2682,0.7746
1781766602166,-23.4288,-25.6206,0.9588,-1.7984,-2.3848,-0.1393
1781766602206,-8.0125,-12.3362,2.4453,-0.7068,0.6768,-0.5993
1781766602246,-8.6576,-16.0897,3.0176,1.8552,2.1783,-1.0959
1781766602286,6.9852,-5.0981,2.5108,2.2724,0.2712,-0.2914
1781766602326,3.6783,7.0723,-0.1601,1.8912,-0.6341,0.1576
1781766602366,1.7688,11.0942,-2.0573,0.0611,-0.5724,-0.6041
1781766602406,-0.6543,8.1199,0.6495,-0.9059,0.5534,-0.1869
1781766602446,-1.6625,9.0867,4.962,-0.2847,-0.8344,0.4288
1781766602486,-0.7894,8.1194,4.8986,-0.2492,-0.5168,0.4948
1781766602526,1.341,8.1945,3.5016,0.1319,0.0531,0.3488
1781766602566,1.5016,4.8392,0.8742,0.1368,0.102,0.0929
1781766602606,4.9029,-14.0037,0.2153,-0.7514,1.0177,0.1393
1781766602646,5.5145,-9.4114,-7.3527,-2.0366,-2.4099,0.3427
1781766602686,-8.0427,-18.8807,-2.2621,-0.2944,-0.4294,0.1863
1781766602726,-4.8638,-13.2586,1.4987,1.2364,0.9279,-1.1435
1781766602766,2.016,-2.764,3.074,1.8393,0.4172,-0.3286
1781766602806,4.1578,6.4347,0.8899,1.4985,-0.1845,-0.3164
1781766602846,-1.3577,10.4935,-1.9375,0.6066,-0.3567,-0.6432
1781766602886,-0.2649,8.2238,-1.9874,-0.3421,1.0354,-0.6377
1781766602926,-0.829,6.3532,2.5061,-0.6121,0.3378,0.0287
1781766602966,0.6989,8.9038,5.898,-0.4881,-0.1289,0.3836
1781766603006,-0.3258,10.7367,3.7027,-0.5907,-0.4038,0.4197
1781766603046,2.6922,7.6426,0.5743,-0.2285,-0.2889,0.6206
1781766603086,12.5526,-18.9428,-5.2615,-1.5754,0.9468,0.3946
1781766603126,-0.8832,-12.6349,-6.5133,-2.0574,-3.0213,-0.3848
1781766603166,-16.8128,-16.677,0.5362,0.1943,0.7074,-0.2908
1781766603206,-2.5967,-7.9161,0.2976,2.204,2.2284,0.1881
1781766603246,5.0894,-0.3507,1.4999,1.7483,0.223,0.2334
1781766603286,5.3565,9.7032,0.4916,1.1863,-0.19,0.0831
1781766603326,2.3596,9.2949,-1.4698,-0.5015,0.3635,-0.4636
1781766603366,-0.3394,7.8527,3.7218,-0.7459,-0.3488,0.1943
1781766603406,-1.2252,8.824,5.5684,-0.6176,-0.4679,0.3085
1781766603446,0.063,9.1884,4.8638,-0.3207,-0.4649,0.223
1781766603486,1.8426,8.8044,3.2008,-0.0971,-0.281,0.1802
1781766603526,2.092,6.653,-1.6947,-0.2981,-0.4417,0.4545
1781766603566,9.997,-22.3102,3.8551,-1.2126,0.0739,0.7923
1781766603606,-1.1197,-13.2609,-8.3107,-2.0452,-3.35,-0.314
1781766603646,-16.3482,-18.75,1.1932,0.4252,0.8803,-0.0513
1781766603686,5.0293,-8.7922,1.7107,2.4997,1.9676,-0.0806
1781766603726,5.8763,3.2424,0.3583,1.9407,-0.4221,-0.0641
1781766603766,4.0515,9.6835,-4.5007,-0.204,-0.3445,-1.0641
1781766603806,-0.7989,10.9281,4.813,-0.9157,-0.4991,-0.4905
1781766603846,-5.503,10.4659,3.7189,-0.4698,-0.5828,-0.0446
1781766603886,-4.099,7.3265,5.3037,0.3219,0.7758,0.3183
1781766603926,2.1333,8.6511,3.8306,0.3415,0.9529,0.391
1781766603966,2.7277,7.2004,1.1551,-0.0593,0.0397,0.5296
1781766604006,5.0952,4.5663,-2.0646,-0.7898,-0.0458,0.7391
1781766604046,11.0027,-15.2381,3.0536,-2.1142,-0.4966,0.5791
1781766604086,-11.7145,-9.9626,-4.7564,-2.1087,-3.3457,0.5589
1781766604126,-14.8179,-23.5396,0.8817,0.0501,2.0036,-0.5162
1781766604166,4.3001,-13.1232,2.3921,2.5009,2.3793,-0.2682
1781766604206,2.7587,-2.0731,1.0573,2.1692,0.0202,-0.1497
1781766604246,8.1512,9.9749,0.7258,1.1973,-0.4496,-0.2309
1781766604286,0.132,8.9062,-3.4381,-0.7129,0.5357,-0.4233
1781766604326,0.0688,7.1068,4.1374,-1.2517,-0.6237,0.328
1781766604366,-5.4617,8.9872,7.8049,-0.5657,-0.7617,0.6231
1781766604408,0.3015,11.0355,4.0284,0.3079,0.2731,0.2822
1781766604446,1.036,9.7625,3.5573,0.6054,0.8803,0.2859
1781766604486,1.9272,6.4937,1.7021,0.2352,0.1393,0.4954
1781766604526,2.5004,3.0548,-2.9568,-1.1533,0.3842,0.4215
1781766604566,11.8406,-37.0595,-2.8597,-1.7171,1.3879,-0.1142
1781766604607,-0.3803,-11.1303,4.0243,-1.325,-2.2413,1.1118
1781766604647,-5.1164,-17.0837,-1.5703,1.1545,0.416,-0.7459
1781766604686,0.9423,-11.0534,0.0871,2.0269,0.8418,-1.7831
1781766604726,2.2546,2.3925,0.7988,1.1619,-0.3763,-1.0715
1781766604766,-1.9845,10.2775,1.5526,0.7141,-0.5211,-0.4667
1781766604806,-1.6174,11.0254,-0.7458,-0.2755,0.5504,-0.1136
1781766604846,1.3088,8.6365,2.8303,-0.5559,-0.3005,0.2786
1781766604886,0.3941,8.6497,5.7806,-0.1888,-0.846,0.1124
1781766604926,-2.7592,7.4301,3.5214,-0.1881,-0.8399,0.1436
1781766604966,-0.4092,8.3887,2.559,-0.1112,-0.0861,0.2199
1781766605006,2.1239,7.2363,1.0348,-0.5162,0.1399,0.2303
1781766605046,5.9024,-4.1569,1.7239,-1.6377,0.2352,0.6054
1781766605086,-15.8479,-22.3485,-13.7262,-1.4954,-4.4532,0.4704
1781766605127,-12.2206,-15.2986,1.6716,-0.5644,0.9102,-0.358
1781766605167,-0.3129,-10.4235,2.1266,2.5027,2.5742,-0.5027
1781766605206,4.192,-3.3096,0.7726,2.149,0.3665,-0.3769
1781766605246,2.5095,6.3991,0.082,1.1704,-0.2645,-0.2193
1781766605286,0.0909,10.2525,0.5211,0.1374,-0.1808,-0.3286
1781766605326,-0.3843,9.5866,1.4111,-0.6292,0.6982,-0.1478
1781766605366,-0.3319,7.6398,4.7881,-0.584,-0.2181,0.0519
1781766605406,-1.1043,8.0141,4.0471,-0.4746,-0.3806,0.182
1781766605446,-1.0534,9.1844,3.9117,-0.2767,-0.0965,0.4478
1781766605486,-0.4743,9.3731,1.4348,-0.3421,0.4019,0.526
1781766605526,3.1116,-0.9183,-1.3606,-1.2987,1.2346,0.8369
1781766605566,-0.9887,-21.2992,-0.2383,-1.2639,-1.4557,-0.5247
1781766605606,-12.2062,-25.8589,1.1398,-0.3231,-0.8186,0.2334
1781766605646,-5.6641,-11.6838,0.4202,2.0275,2.0409,-0.9951
1781766605687,1.8236,-4.5394,1.715,1.9597,1.463,-0.5962
1781766605726,2.534,5.3384,1.4999,1.1142,0.0428,-0.0849
1781766605766,2.4607,10.8398,0.0386,0.4581,-0.9334,-0.0409
1781766605806,-1.2361,9.4753,0.5652,-0.6823,0.6744,-0.0702
1781766605846,-0.0577,7.5103,3.9886,-0.7336,0.0348,0.3787
1781766605886,0.0992,7.2725,4.3863,-0.8454,-0.4966,0.234
1781766605926,-0.2886,8.2801,3.0567,-0.4624,-0.5657,0.1118
1781766605966,-0.8029,9.5675,2.9273,-0.4417,0.1417,-0.0067
1781766606006,-1.8144,0.9236,-7.2474,-1.8185,0.7086,0.1851
1781766606046,-6.1425,-26.1655,5.3021,-1.1466,-2.1961,-0.2065
1781766606086,-12.0427,-24.0152,-0.7902,-0.2908,-0.6768,-0.526
1781766606126,-4.5812,-12.1932,2.2864,1.4661,1.1613,-0.5492
1781766606166,2.5267,-1.6086,3.8626,2.0934,0.741,-0.2388
1781766606206,4.328,6.6157,1.2683,1.7263,-0.2822,0.1442
1781766606246,1.4208,10.1386,-0.6605,0.4777,-0.708,-0.2731
1781766606286,-0.4799,8.1437,-1.3921,-0.3842,0.6628,-0.2388
1781766606326,-2.3505,7.3435,4.9961,-0.2633,-0.0617,0.5388
1781766606366,-0.7113,9.1168,5.1185,-0.1374,-0.4148,0.7642
1781766606406,1.4233,9.8552,3.7295,-0.1863,-0.3409,0.526
1781766606446,1.9028,7.3533,-1.4183,-0.3702,0.0202,0.3726
1781766606486,10.7173,-13.982,1.1858,-0.6267,1.0715,0.405
1781766606526,-1.1781,-15.8483,-14.3216,-1.9548,-2.8179,-0.1277
1781766606566,-13.0401,-18.0537,1.6388,0.0202,0.8277,-0.3268
1781766606606,-2.0099,-7.6718,-0.7929,2.1099,1.8552,-0.0867
1781766606646,2.7521,-0.6388,0.7117,1.4233,0.8375,0.259
1781766606686,4.8283,7.1485,0.7041,0.507,0.0935,0.1747
1781766606726,1.181,11.0711,1.6628,-0.6646,0.1814,-0.2547
1781766606766,0.6884,9.3739,3.7539,-0.7159,0.0806,0.033
1781766606806,0.0132,7.829,4.36,-0.672,-0.2456,0.0959
1781766606846,-0.8215,7.676,4.6633,-0.5278,-0.2999,0.1924
1781766606886,-0.6768,9.365,3.294,-0.2297,-0.2749,0.5205
1781766606926,0.0389,6.7351,-1.3844,-1.2908,0.6414,0.4484
1781766606966,21.9344,-41.6747,-3.3926,-1.0165,2.5235,-1.08
1781766607006,1.572,-13.8511,3.2129,-1.5406,-2.6017,-0.2486
1781766607046,-13.1016,-15.3895,1.6734,0.9694,1.0562,-1.1142
1781766607086,-0.2471,-7.0577,0.9982,2.2003,1.8662,-0.5901
1781766607126,2.3376,2.449,2.1061,1.6109,0.5247,0.3421
1781766607166,5.4423,9.2506,0.6373,0.4838,-0.4178,0.5021
1781766607206,2.59,10.5392,-0.0393,-0.6952,0.1924,0.1063
1781766607246,-0.9735,7.9111,4.5575,-0.9401,-0.0134,0.1979
1781766607286,-0.6439,8.6263,7.3739,-0.5113,-0.5003,0.4759
1781766607326,-0.8278,9.9012,5.2526,-0.1979,-0.5089,0.4459
1781766607366,-0.8834,9.2489,3.8251,0.1008,-0.2175,0.5223
1781766607406,1.1965,5.5748,-4.7776,-0.7862,0.719,0.38
1781766607447,23.8636,-47.428,-6.0403,-0.4942,1.8021,-0.5516
1781766607486,-2.0557,-14.2243,4.797,-1.9566,-1.8436,0.099
1781766607526,-8.8347,-13.8174,4.7999,0.9022,1.1845,-1.3073
1781766607566,-2.9785,-9.1174,4.6377,2.6359,1.2107,-0.0012
1781766607606,4.6691,-0.8133,0.7868,2.5485,0.1692,0.3189
1781766607646,8.2343,10.7824,-2.3921,1.2914,-0.3586,-0.5693
1781766607686,2.7315,7.878,-4.0884,-0.5412,0.2553,-1.1619
1781766607726,-4.3252,7.0897,4.1444,-0.9029,-0.6677,-0.4105
1781766607767,-5.4722,9.0137,8.3995,-0.584,-0.6316,0.3561
1781766607806,-2.5675,10.4138,3.3066,-0.4068,0.2395,0.7104
1781766607846,2.238,9.1986,4.1645,0.1032,0.4777,0.6304
1781766607886,4.9387,6.2801,1.0459,0.1173,0.6616,0.3879
1781766607926,11.5195,-32.6633,0.1208,-0.8253,0.3836,0.3036
1781766607966,1.6651,-23.6629,-5.1435,-2.8766,-2.8582,0.2724
1781766608006,-6.8121,-9.8443,4.1145,-0.1588,0.7844,-0.7031
1781766608047,-1.0041,-8.2949,1.5519,2.3408,1.3476,-0.8234
1781766608088,2.2154,1.122,3.0424,2.0287,-0.3341,0.0391
1781766608126,4.4795,11.4345,-1.085,1.3573,-0.7245,-0.0159
1781766608166,2.1341,9.3275,-3.8243,-0.1179,-0.077,-0.6212
1781766608206,-2.676,7.5051,2.3373,-0.6292,-0.0953,-0.2224
1781766608246,-4.9877,8.9613,6.967,-0.617,0.0189,0.212
1781766608286,-3.225,9.4648,5.334,-0.0067,-0.2529,0.857
1781766608326,1.3042,7.8178,4.5735,0.4007,0.4007,0.6988
1781766608366,3.8575,5.0172,0.1683,-0.2566,0.6145,0.2126
1781766608406,10.4489,-35.123,-4.6922,-0.9126,0.7752,-0.1374
1781766608446,1.6557,-16.5944,-0.8864,-2.8931,-2.2584,0.146
1781766608486,-8.6542,-14.5477,5.1428,-0.1038,0.9132,-0.9413
1781766608526,-2.0571,-6.9757,2.5169,2.4355,1.1729,-0.1283
1781766608567,5.1652,0.6227,1.0887,2.2071,-0.0605,0.2602
1781766608607,4.3129,8.9747,-2.0036,1.2853,-0.4972,-0.27
1781766608646,0.8371,10.0995,-1.2398,-0.8399,0.3219,-0.529
1781766608686,-1.371,6.4146,1.6427,-0.7599,-0.2743,0.1264
1781766608726,-2.5501,8.3015,5.7353,-0.5406,-0.6665,0.2926
1781766608766,-1.2922,10.9818,4.8977,-0.0189,-0.449,0.5027
1781766608806,2.477,9.5077,1.8917,-0.0825,0.3219,0.1686
1781766608846,2.8092,3.3174,-5.8453,-0.8711,0.8601,0.4368
1781766608886,6.6016,-40.2215,-1.401,-1.0214,-0.6903,-0.6872
1781766608927,-7.318,-18.6842,5.1903,-1.6677,-2.0323,0.2999
1781766608967,-5.9724,-12.3825,5.7671,2.4404,1.8754,-0.2865
1781766609006,0.6043,-7.2315,2.0055,1.8094,0.9468,-0.1271
1781766609046,6.1438,2.806,0.8384,0.9255,-0.0971,-0.3439
1781766609086,2.9193,10.9413,-0.6522,-0.0538,-0.8033,-0.4227
1781766609126,0.5851,9.0047,-0.4368,-1.0928,-0.0929,-0.0837
1781766609166,-0.5058,8.012,2.3285,-1.1069,-0.0843,-0.0623
1781766609206,-2.9662,8.5148,6.1592,-0.7336,-0.3005,0.1051
1781766609247,-1.2357,8.507,4.298,-0.1155,-0.2016,0.2388
1781766609287,0.2013,9.2915,3.6194,-0.4606,0.5143,-0.0238
1781766609326,2.259,2.0994,-7.1258,-0.642,1.0763,0.2724
1781766609366,0.238,-35.3604,-3.2347,-1.7666,-4.1459,0.9756
1781766609406,-14.2973,-21.707,0.0252,0.4282,1.036,-0.7782
1781766609446,-10.4636,-13.6866,2.6768,2.5669,1.7373,0.0336
1781766609486,2.2801,-2.3273,2.6318,2.1063,0.4875,0.4258
1781766609526,6.7456,5.3458,-0.3784,1.0146,-0.7483,0.0238
1781766609566,3.2448,11.0719,-1.9697,-0.6732,0.3409,-0.5675
1781766609606,-0.4939,7.3929,0.3928,-0.8491,-0.1356,-0.0086
1781766609646,-2.4579,7.9374,5.6539,-0.73,-0.7868,0.3311
1781766609686,-2.3094,10.5557,4.4486,-0.427,-0.4001,0.3512
1781766609726,-1.7644,9.7279,4.0893,0.0342,-0.0232,0.6426
1781766609766,3.4964,7.9067,3.0022,-0.1448,0.5779,0.4777
1781766609806,3.1332,-2.6637,-6.2368,-0.4362,0.7318,-0.1387
1781766609846,0.0607,-23.824,-8.4855,-2.733,-3.0641,0.3445
1781766609886,-9.0995,-16.1926,2.8027,0.4612,0.9786,-1.2278
1781766609926,-8.5125,-14.3865,2.7632,2.5919,1.4355,-0.5675
1781766609966,0.6559,-4.1105,1.3022,1.7446,0.3274,0.0165
1781766610006,4.6372,5.6846,0.9255,0.8534,-0.5638,-0.2059
1781766610046,1.8085,11.5173,-0.8276,-0.4545,0.336,-0.306
1781766610086,-0.4057,8.2645,-0.0755,-0.8192,0.0916,0.3745
1781766610126,-1.5503,8.2544,5.2989,-0.4539,-0.2602,0.5241
1781766610166,-1.9537,9.1411,6.0026,-0.1772,-0.0458,0.6976
1781766610206,-0.2212,9.28,3.3892,0.0354,0.1118,0.5327
1781766610246,1.4968,8.0233,0.2374,-0.493,0.7398,0.4808
1781766610286,5.121,-4.6249,1.9399,-1.0263,1.631,-0.1674
1781766610326,-13.2588,-28.8318,-3.4944,-2.9438,-1.5119,1.1894
1781766610366,-1.0451,-4.7024,4.1684,1.014,0.245,-1.9981
1781766610406,-20.3607,-25.3328,4.4313,2.6255,0.7257,-0.3067
1781766610446,6.3585,-5.8711,0.6242,1.8857,-0.1002,0.1228
1781766610486,8.2867,4.9843,-0.5439,0.6103,-1.1289,-0.146
1781766610526,-0.7943,11.0092,-0.5668,-0.8015,-0.2046,-0.0208
1781766610567,-2.627,9.7001,1.2887,-0.391,-0.2523,0.6023
1781766610606,0.1176,10.8541,6.4972,0.2999,-0.2938,0.1344
1781766610646,0.7573,10.7929,3.7961,0.2877,0.1472,-0.3696
1781766610686,-0.4017,8.5913,3.2062,0.5174,-0.4032,-0.4502
1781766610726,0.6745,6.8346,0.2722,-0.317,0.3329,-0.069
1781766610766,-4.3251,-8.9634,-4.6467,-0.7355,0.4111,0.7508
1781766610806,-5.5852,-9.7451,-2.6781,-2.4936,-0.2352,1.1509
1781766610846,2.5112,-6.5245,7.511,-1.3066,0.7282,0.606
1781766610886,5.9139,-6.1146,1.7626,0.496,0.1081,-0.0037
1781766610926,-4.6242,-9.8685,-1.0805,0.7624,0.2541,-0.1423
1781766610966,0.3951,-2.4211,3.1145,1.6945,-0.4856,0.0764
1781766611007,-3.1925,-5.7114,0.5757,1.7147,-0.9151,0.0043
1781766611046,0.2731,-2.7957,-3.0292,0.4111,-0.4618,-0.43
1781766611087,-1.8792,7.8662,0.8171,-0.1833,-0.4081,-0.1191
1781766611126,-1.2774,8.5269,-0.0299,-0.1991,-0.0751,0.0959
1781766611167,1.5144,8.2701,3.8299,0.0513,0.3409,-0.2828
1781766611206,3.2592,9.5226,3.2765,0.1222,-0.1668,-0.5797
1781766611246,2.3793,12.0093,3.3199,-0.2334,-0.2633,-0.3476
1781766611286,4.9196,0.8455,1.9941,-0.3207,0.4154,-0.8155
1781766611326,-7.371,-15.7314,3.5201,-1.7129,-1.8613,1.3127
1781766611366,-4.8226,-9.8373,2.464,-1.6829,0.6365,0.8473
1781766611406,12.3055,-0.9926,4.0623,0.5473,-0.3818,-0.4307
1781766611446,-14.0059,-13.1269,1.8199,1.4801,0.5522,-0.1448
1781766611486,1.6232,-5.0872,-0.0533,1.7538,0.5815,-0.2169
1781766611526,0.7057,-3.7965,-1.3033,1.0324,-0.3635,0.0635
1781766611567,-3.9812,-0.3036,-2.5112,-0.3427,0.0128,0.3464
1781766611607,-0.5051,8.6671,-0.703,-0.9102,-0.0654,0.3635
1781766611646,2.5198,8.8242,5.286,-0.1387,0.3567,-0.0434
1781766611686,1.3951,10.6535,5.4489,0.19,0.6408,-0.4184
1781766611726,2.9786,10.1939,3.9724,0.3372,0.807,-0.3024
1781766611766,3.5543,7.0866,-2.5052,-1.1747,0.4215,-0.0049
1781766611806,10.3771,-15.1195,8.8409,-0.6072,-1.4038,-0.2388
1781766611846,-5.035,-17.028,-17.4398,-2.8112,-1.0122,0.7495
1781766611886,3.4999,-1.2031,10.2241,-0.5241,-0.1698,-0.2303
1781766611926,-5.748,-13.9083,5.4978,1.6732,-0.055,0.3946
1781766611966,-1.6376,-10.0359,1.5584,1.9768,1.1264,-0.3629
1781766612006,6.5738,-4.2646,-1.9229,0.8308,-0.6683,-0.6041
1781766612046,-3.8706,-1.3984,-0.7319,-0.0648,-0.8986,0.0501
1781766612086,-4.2472,7.6066,-0.2936,-0.7361,0.3396,0.4129
1781766612126,1.8789,7.4356,-1.4488,-1.2743,0.5205,0.2822
1781766612166,1.282,12.1661,9.6205,-0.0599,-0.2144,0.1588
1781766612207,1.7733,10.6707,4.7756,0.0263,0.6017,0.3604
1781766612246,1.8061,8.2503,5.1658,0.0421,0.9908,0.0593
1781766612286,4.6171,5.6182,0.4144,-1.5711,1.1942,-0.4276
1781766612326,12.7112,-6.0517,-6.0962,-2.1038,1.1735,-1.978
1781766612366,-7.0667,-20.4039,-3.3827,-1.0941,-0.0666,0.5669
1781766612406,-4.0927,-3.7787,1.0086,1.8576,1.2633,-3.072
1781766612446,-1.3626,-16.0361,8.0828,2.2828,0.9945,-0.912
1781766612486,6.2659,-1.4825,0.5415,1.6084,-0.325,-0.1588
1781766612526,-0.9306,7.4146,0.2959,0.6469,-0.7715,-0.2816
1781766612566,-1.048,11.8732,1.0565,-0.4533,1.1839,-0.0764
1781766612606,-0.3636,7.9289,0.64,-0.4142,-0.2382,0.4942
1781766612646,0.1591,7.5859,5.7655,-0.2425,-0.2028,0.405
1781766612686,-0.1728,9.4579,4.079,0.0367,-0.4478,0.3054
1781766612726,-0.2449,9.4363,3.0181,-0.0104,-0.1619,0.5253
1781766612766,2.0457,8.7372,2.0956,-0.3519,-0.234,0.3201
1781766612807,3.0662,2.6528,-4.1777,-1.3506,0.2639,0.058
1781766612846,-7.9735,-62.1684,-21.3829,-2.4172,-3.3433,2.1991
1781766612886,-3.9383,-9.0148,2.1229,0.7892,0.7275,-2.0965
1781766612927,-8.2478,-14.9123,8.142,2.4447,1.3311,-1.0061
1781766612967,2.193,-4.0938,1.6263,1.846,0.3146,0.1448
1781766613007,4.8974,6.063,0.3056,0.7324,0.1002,0.0983
1781766613046,2.8484,9.8079,-1.9389,-0.8131,0.6774,-0.2712
1781766613086,-0.1025,9.1547,3.0114,-0.7104,-0.1564,0.2621
1781766613126,-1.8813,8.2241,5.0865,-0.2382,-0.4838,0.6475
1781766613166,-2.1247,9.576,2.9746,-0.2077,-0.1436,0.5938
1781766613206,-0.9468,9.4969,3.6311,-0.0794,0.2376,0.7049
1781766613246,0.4089,6.5517,3.8333,-0.2547,0.1674,0.7734
1781766613287,4.4184,5.0034,-0.9249,-1.5168,0.2517,0.6164
1781766613326,11.1688,-33.3305,-0.5567,-0.5993,-2.1557,0.1002
1781766613366,-0.3754,-26.1235,-4.2088,-0.2144,0.0837,-0.6567
1781766613406,-3.9532,-16.0393,0.8787,1.3415,1.2456,-1.223
1781766613446,1.9751,-2.6369,4.6505,1.8143,-0.3103,-0.6335
1781766613486,2.1532,5.4124,1.1482,1.1527,-0.7391,-0.3341
1781766613526,0.1526,9.7582,0.0333,-0.0538,0.0812,-0.4288
1781766613566,0.0162,9.7209,0.2065,-0.7269,-0.0745,-0.2981
1781766613606,-0.946,7.3074,4.5647,-0.3097,-0.8106,0.182
1781766613646,-2.2227,7.2502,4.6952,-0.2095,-0.9548,0.391
1781766613686,-1.2152,9.9288,2.3682,-0.2468,-0.441,0.4545
1781766613726,1.5085,9.8009,2.2153,-0.2181,0.0519,0.3965
1781766613766,3.5222,7.7835,1.2686,-1.0495,0.1704,0.2156
1781766613806,11.4067,-45.7327,5.5312,-1.1167,-1.9346,-0.1008
1781766613846,-2.3373,-19.2311,1.5813,-0.2266,0.6933,-0.4368
1781766613886,-6.917,-15.8642,3.4692,2.0305,1.8949,-0.4624
1781766613927,3.5264,-3.2206,1.9566,1.824,0.2883,0.0208
1781766613966,6.2052,3.856,0.4474,0.5137,-0.4881,0.0208
1781766614006,0.8547,10.6207,-0.4941,-0.7972,-0.0495,-0.193
1781766614046,0.9863,10.8419,1.9114,-1.1894,-0.5455,-0.0757
1781766614086,-2.2759,7.6736,5.7657,-0.4087,-0.6793,0.4282
1781766614126,-3.8934,6.4609,5.3021,-0.0061,-0.1234,0.7147
1781766614166,-0.2598,9.6972,1.3453,-0.2272,0.2896,0.7282
1781766614207,4.352,9.2315,3.8747,-0.4673,0.6805,0.5492
1781766614246,9.3096,0.9741,-1.172,-0.9041,-0.0354,-0.4636
1781766614286,-1.3021,-61.254,-25.2066,-2.777,-4.4245,1.8234
1781766614326,-4.9934,-0.2039,0.3391,1.4032,0.4899,-2.0879
1781766614366,-17.9232,-22.6068,4.7138,2.9829,2.7306,-0.5315
1781766614406,6.048,-8.921,2.1224,1.9884,0.8577,-0.3048
1781766614446,5.7217,2.6203,-2.708,0.4856,-0.0495,-0.4459
1781766614486,-4.7756,10.1459,-0.9781,-1.609,1.0079,0.1216
1781766614526,-3.6725,11.0095,1.7228,-1.6225,0.3024,0.6322
1781766614566,0.2199,10.9749,7.7073,-0.1998,0.6121,1.1234
1781766614606,0.2301,7.2704,5.9378,-0.1875,0.2602,0.9212
1781766614646,2.434,6.6426,4.6966,-0.1124,1.124,-0.2107
1781766614686,4.3901,7.3276,4.0525,0.0177,0.2382,0.2089
1781766614726,-2.4767,-0.227,2.6553,-0.4667,-0.5699,0.9358
1781766614766,-9.4429,-31.221,-2.4676,-0.6329,-2.1215,3.9859
1781766614806,2.2744,-10.8317,-17.4471,-4.2272,-1.1429,1.981
1781766614847,-3.859,-16.4909,-5.3027,-4.711,0.2517,1.4184
1781766614886,-10.7357,-11.319,-0.5939,-3.8546,2.7782,1.5492
1781766614926,-2.3415,-3.7615,1.9455,-3.0177,4.5613,0.0415
1781766614966,-1.457,7.5421,9.44,0.1124,3.3372,-0.7471
1781766615006,8.1874,10.2727,13.6705,1.7006,0.5705,-0.8381
1781766615046,7.3449,7.9293,12.1415,2.2376,-1.1533,-0.2138
1781766615086,0.3896,7.8267,9.8776,2.9822,-2.5058,-0.1967
1781766615127,-0.3622,4.0593,8.1456,2.5956,-0.5107,-0.8131
1781766615167,0.0726,-0.3542,9.1736,3.0598,-0.9187,-0.8919
1781766615206,0.0494,-0.4835,0.2585,0.6518,-0.2169,-0.7911
1781766615246,5.2499,-0.8234,2.5597,0.0666,-1.5852,0.1643
1781766615286,-6.9633,-9.7175,2.3895,0.0128,-0.9694,1.1912
1781766615326,-1.0602,-20.4148,-1.7336,-0.3231,-0.5589,1.5577
1781766615366,-0.7307,-8.8212,-12.2612,-2.4496,0.8399,-0.0996
1781766615406,-10.2504,-16.7444,-12.9297,-4.1588,-0.0513,-0.3671
1781766615446,-16.0121,-12.7648,-2.1795,-3.7635,2.0501,1.7037
1781766615486,-5.2373,7.3343,7.3593,-1.9151,4.6188,-0.7019
1781766615526,9.7124,15.8498,24.4436,1.047,1.6493,-0.6481
1781766615567,3.233,4.8942,18.7653,3.0122,-0.9786,0.1857
1781766615606,3.9155,3.6318,9.1381,2.7428,-1.5449,-0.551
1781766615647,0.7851,-2.4927,6.4688,2.4306,-1.1594,-0.7862
1781766615686,-2.7057,-3.1224,5.6904,1.5321,-0.3048,-0.6665
1781766615726,0.8554,5.1341,6.3204,1.3457,-0.5742,-0.8558
1781766615767,2.0893,9.1419,6.1911,2.4129,-1.598,-0.821
1781766615806,1.9031,2.5885,4.6825,1.8607,2.3488,-0.7813
1781766615846,-20.2509,-52.3661,-12.9784,-1.5046,-1.8082,1.697
1781766615886,0.6929,-2.3037,-9.5528,-4.5283,-2.0269,-0.3537
1781766615926,-13.0178,-14.8324,-3.6377,-3.149,-1.0983,1.0873
1781766615966,-6.6862,-9.4331,6.5128,-1.1826,3.8607,0.0617
1781766616006,4.9236,1.888,-0.2721,-0.2877,3.8539,-1.6805
1781766616046,4.5378,9.9804,15.8859,2.0403,-0.0269,-0.0128
1781766616086,4.0809,8.8219,13.1694,2.014,-1.2181,1.1832
1781766616126,-0.2103,5.2402,6.8993,1.7966,-1.8601,0.2669
1781766616166,2.9652,4.1727,4.4597,1.8314,-0.7275,-0.0788
1781766616207,-2.2114,3.2854,5.8043,1.0134,-0.4038,0.0043
1781766616246,-2.3591,7.6229,5.3099,0.6066,-0.35,0.2089
1781766616286,-1.5491,8.4904,3.5199,0.391,-0.7343,0.1051
1781766616326,-2.2875,4.6055,2.7375,0.8125,-0.3653,0.3659
1781766616367,1.7206,-38.4103,-1.9634,-0.1216,-0.0886,0.4563
1781766616406,13.3414,-10.4857,-25.349,-1.2749,-1.8583,-0.9927
1781766616448,-14.0641,-31.2542,-3.1026,0.0452,0.8271,-0.1014
1781766616487,-0.5649,0.1062,9.4958,2.3757,0.2865,-0.2034
1781766616528,12.9675,8.7372,0.5434,1.4575,0.2987,-1.3347
1781766616566,0.4706,5.7543,-2.2332,0.3036,0.0531,-0.8454
1781766616607,-2.7104,7.015,1.9009,-0.0599,-0.5498,0.3561
1781766616647,-1.503,11.1868,6.6657,0.4979,-0.1643,0.5999
1781766616686,-0.3411,10.1497,4.2838,0.6158,0.4184,0.3745
1781766616726,-1.262,7.4207,6.7066,1.077,-0.1423,0.6982
1781766616767,3.1231,6.4214,4.4586,0.7074,-0.4551,0.3024
1781766616806,3.7526,-6.6308,-10.0962,-0.5278,0.1545,-0.8827
1781766616847,-1.4005,-18.9827,-4.3681,-1.7733,-2.0397,0.686
1781766616887,-9.8387,-18.9491,0.7226,0.3616,0.1912,-0.9077
1781766616926,-5.8834,-11.4403,1.2633,1.8088,1.3347,-0.2957
1781766616967,3.4767,-1.9684,1.0909,1.1961,0.4343,-0.2645
1781766617006,7.466,7.9884,-0.3344,0.3329,-0.3048,-1.0421
1781766617046,-2.2637,11.6907,2.9922,-0.2095,-0.1918,-0.3482
1781766617086,-1.824,9.0258,0.8435,-0.4581,-0.1772,0.0238
1781766617126,-0.8958,7.3935,3.8933,-0.3879,-0.4417,-0.0299
1781766617167,-1.5558,8.2322,2.3474,-0.1698,-0.3415,0.1478
1781766617207,0.1846,9.351,2.0352,-0.3293,-0.3048,-0.0611
1781766617246,0.8113,7.2746,0.0589,-1.372,0.9175,0.1222
1781766617286,7.6805,-27.1589,4.0922,-0.9493,-2.8485,0.5046
1781766617326,-1.4936,-10.5321,-4.9045,-0.0238,0.9798,0.2859
1781766617367,-11.5755,-18.7374,4.9373,2.2474,1.9981,0.2101
1781766617406,2.8949,-4.9329,1.1769,1.697,1.4752,-0.1173
1781766617446,6.9208,1.6574,1.4922,0.6915,0.0128,-0.1839
1781766617486,3.6933,9.0746,1.112,-0.1961,-0.7905,-0.4734
1781766617526,-1.0653,9.8817,0.8504,-0.9108,-0.7355,-0.1106
1781766617566,-0.9136,8.2049,2.7416,-0.6359,-0.7953,-0.0202
1781766617606,-1.8273,7.5817,4.7215,-0.4917,-0.5974,-0.0556
1781766617646,-1.3638,9.0536,3.2374,-0.3152,-0.5913,-0.0128
1781766617686,0.1243,8.5411,2.2605,-1.0708,0.0147,0.0495
1781766617726,3.0779,-2.7805,-0.8975,-0.9236,1.0922,-0.6805
1781766617766,-6.8756,-13.4621,2.1652,-1.1845,-4.0073,0.3225
1781766617806,-22.404,-31.065,-1.7342,0.9499,1.2877,-0.1106
1781766617846,-3.2914,-8.3663,1.8319,2.2449,2.8442,0.4636
1781766617886,3.9045,-3.9136,1.8048,1.4398,1.8393,-0.1326
1781766617926,6.8009,5.6733,0.3797,0.3219,-0.1093,-0.1289
1781766617966,3.0766,10.8429,1.2085,-0.5089,-0.0886,-0.1216
1781766618006,-2.415,9.3881,2.7219,-0.9071,-0.5534,0.2865
1781766618047,-1.2421,6.1708,4.2607,-0.9169,-0.3549,0.0849
1781766618087,0.049,6.8438,2.8787,-0.5932,-0.5015,-0.0434
1781766618127,-1.5463,7.555,4.0869,-0.7514,-0.2083,-0.0031
1781766618167,-0.8872,6.147,-1.4654,-0.934,0.7153,0.3787
1781766618206,12.8762,-30.3762,8.5243,-0.5186,-2.5107,-0.0104
1781766618246,6.9848,-9.2856,-5.6425,-0.0367,-1.6866,-0.5571
1781766618286,-12.3189,-20.0931,0.7429,1.3482,0.6377,-1.0727
1781766618326,-4.464,-3.8943,1.3009,1.4612,0.9621,-0.3537
1781766618366,-0.6278,3.6492,3.1645,1.2755,0.1387,0.5699
1781766618406,4.137,10.3906,1.6219,0.4166,-0.1356,0.3054
1781766618446,-0.6922,9.6948,0.033,-0.438,0.5699,0.3433
1781766618486,-1.9067,6.5099,4.0572,-0.1558,0.0531,0.6164
1781766618526,-0.0525,7.6207,4.8224,-0.091,-0.1778,0.4557
1781766618566,0.5033,8.8084,3.9402,-0.2718,-0.0409,0.2883
1781766618606,0.2516,8.8531,1.9632,-0.7831,0.179,0.2425
1781766618646,1.6275,0.1795,-4.7166,-0.8491,1.4331,0.0263
1781766618686,-7.8659,-25.7727,1.2722,-2.3457,-3.0922,0.2486
1781766618726,-13.4867,-22.3994,2.4893,0.4074,1.35,-0.664
1781766618767,-3.0927,-11.4995,3.086,2.3738,2.0427,-0.3207
1781766618807,0.9716,-4.4478,1.5631,1.5388,0.766,0.1509
1781766618846,4.6215,4.7843,0.3699,0.4545,-0.0037,-0.0305
1781766618886,3.6939,10.5901,-0.9175,-0.5913,-0.1943,-0.2987
1781766618926,0.0737,10.0106,1.2034,-1.0837,-0.0024,0.2211
1781766618967,-2.5056,7.9942,5.4623,-0.5705,-0.3311,0.3793
1781766619006,-2.1466,7.1416,5.1074,-0.441,-0.025,0.1662
1781766619047,-1.8327,8.5529,3.7185,-0.2034,0.2731,0.3586
1781766619086,-2.218,10.0764,2.7704,-0.4832,0.5137,0.3677
1781766619126,0.8032,-1.747,-5.9846,-0.4319,3.3756,-0.7697
1781766619167,-4.748,-22.4873,1.1567,-1.1057,-2.24,0.3574
1781766619206,-15.9542,-27.778,1.6365,1.2144,0.4459,-0.7697
1781766619246,-5.3149,-10.1903,0.3903,2.2651,1.7269,0.212
1781766619286,3.8107,-1.4414,2.1642,1.8754,0.5095,0.5027
1781766619326,7.1535,6.6034,0.2309,0.3183,-0.5614,-0.1014
1781766619366,1.7692,10.7696,-1.9069,-0.9181,0.5925,-0.4239
1781766619406,-2.8756,8.4015,5.7193,-0.7501,-0.5156,0.1026
1781766619446,-1.1313,8.7979,4.5944,-0.5082,-1.0745,0.2162
1781766619486,-2.2258,9.0499,5.3459,0.1234,-0.3549,0.6335
1781766619526,-2.5384,9.8556,3.2782,-0.0996,0.1026,0.7233
1781766619566,0.3311,7.8701,4.9671,-0.3989,0.3396,0.6652
1781766619606,0.066,0.1757,-11.197,-1.0336,0.5828,0.609
1781766619647,0.6139,-36.8374,-20.3731,-2.4441,-2.9871,0.8546
1781766619686,-8.8764,-20.3384,6.5043,0.6848,0.8118,-1.5137
1781766619728,-5.8749,-11.1243,1.4312,2.5644,1.5589,-0.9358
1781766619767,0.6254,-3.5785,1.866,2.0488,0.2859,0.3176
1781766619806,7.0027,8.0896,0.5497,0.4691,-0.9371,0.0483
1781766619846,1.2035,8.9793,-1.2416,-1.2113,0.4368,-0.3286
1781766619886,-2.1708,6.7585,2.0492,-1.4893,-0.394,0.1979
1781766619926,-2.705,8.8703,6.3329,-0.3115,-0.6555,0.4753
1781766619968,-2.0678,9.4228,6.4321,-0.0611,-0.2016,0.6267
1781766620006,-2.0672,9.5167,4.9243,0.2798,0.4252,0.7825
1781766620046,2.8388,8.3449,3.9259,-0.0812,0.5443,0.4319
1781766620086,1.826,-0.8716,-11.9194,-1.2449,0.8491,0.0941
1781766620127,8.1627,-36.4959,2.6873,-1.8485,-4.8136,0.777
1781766620166,-14.0903,-21.2285,2.3603,0.9511,0.303,-1.1185
1781766620206,-9.6349,-15.5224,0.941,2.8619,2.1893,-1.0586
1781766620246,6.2039,-5.6547,0.5908,1.813,0.146,-0.6194
1781766620286,3.5248,6.2618,-0.055,0.73,-0.741,-0.5235
1781766620326,-1.392,10.8597,0.1004,-0.5705,0.5705,-0.4905
1781766620366,-1.793,9.9307,1.2755,-1.2419,0.6274,-0.113
1781766620406,-1.866,8.2007,4.9545,-0.5571,-0.1985,0.4111
1781766620446,-2.2855,6.5455,6.5666,-0.3604,-0.7477,0.8412
1781766620486,-1.4515,8.869,3.2287,-0.1173,0.091,0.8644
1781766620526,0.3722,9.2208,3.7029,-0.0849,0.7031,0.4142
1781766620567,5.2554,7.0387,-0.714,-1.5192,0.6463,0.1973
1781766620606,19.8184,-50.1412,1.9642,-1.3323,-3.747,-0.033
1781766620646,-5.0121,-22.2732,1.0439,-0.1179,0.4679,-0.7147
1781766620686,-11.8245,-14.6252,4.4167,2.1973,2.2547,-0.6988
1781766620726,0.5854,-2.365,4.1294,2.3298,1.0898,-0.0263
1781766620766,4.1764,4.3811,1.5172,1.5693,0.3378,-0.1961
1781766620806,4.1721,9.8159,-2.0096,-0.1491,-0.022,-0.5736
1781766620846,0.8117,8.1344,-0.6459,-1.025,0.1845,-0.1423
1781766620886,-1.2197,8.569,4.7539,-0.6781,-0.8063,0.1668
1781766620926,-2.4746,8.5044,6.5423,-0.6426,-0.5864,0.2957
1781766620966,-3.0466,7.3966,3.361,0.0977,-0.1674,0.6634
1781766621006,1.1852,8.8154,4.6426,-0.0953,0.515,0.3855
1781766621046,3.9438,4.6617,-5.0289,-0.5315,0.4154,0.3299
1781766621086,12.6643,-50.5425,3.6939,-2.0061,-3.8558,0.4893
1781766621126,-8.7487,-22.1649,6.3297,-0.2944,0.1008,-0.9395
1781766621166,-13.6586,-10.8526,3.8688,2.6286,1.7355,-0.7196
1781766621207,-0.3383,-5.1481,2.4565,1.8766,0.1258,0.2175
1781766621246,1.3826,4.0276,-0.6578,0.474,-0.54,0.1936
1781766621286,1.7932,9.0094,-1.8988,-0.9988,0.5321,0.2285
1781766621327,-0.7197,10.9079,5.2564,-0.5559,0.2272,0.6011
1781766621366,0.1412,10.3203,4.2024,-0.4221,-0.6329,0.2291
1781766621406,-1.9397,7.3055,4.1496,-0.1772,0.0006,0.1717
1781766621446,-0.0054,7.916,3.3996,-0.3323,0.036,0.0605
1781766621486,0.1655,9.1895,3.7314,-0.8039,0.168,-0.2156
1781766621526,0.9094,0.6515,-3.0868,-0.2718,2.0012,-1.2346
1781766621566,-20.2,-37.7055,-7.7082,-0.5974,-1.9383,1.2187
1781766621607,-10.3187,-14.962,2.0978,0.7092,1.3134,-0.7263
1781766621646,0.4285,-6.9661,5.6079,1.7911,-0.3708,-0.0898
1781766621686,-0.1936,5.655,3.2667,1.4129,-0.3042,0.6298
1781766621726,5.4905,8.5224,-1.2556,-0.2786,-0.3268,-0.1081
1781766621766,1.0586,8.5665,0.1081,-0.6426,-0.1411,0.0299
1781766621806,-2.1554,9.1174,5.2777,-0.3109,-0.3476,0.3561
1781766621847,-3.1774,7.0649,6.0287,0.0073,-0.0244,0.5803
1781766621886,-0.7361,7.5887,3.9775,0.1888,-0.0611,0.5968
1781766621926,1.8093,10.343,4.0587,-0.0024,0.3341,0.1607
1781766621966,0.4292,4.248,-6.6442,-1.2205,0.9499,0.135
1781766622008,7.6933,-48.8969,-7.2811,-2.1289,-3.7275,1.0586
1781766622046,-5.4963,-20.812,4.3245,-0.2095,0.2199,-0.9358
1781766622086,-8.0951,-11.2629,5.7027,2.2455,1.2883,-0.496
1781766622126,0.1356,-1.2205,2.1267,2.0647,0.1875,0.2828
1781766622167,5.3714,5.5205,0.0054,1.0928,-0.0617,-0.0305
1781766622206,2.6398,10.5894,-2.2393,-0.0586,0.3952,-0.4154
1781766622246,0.8348,8.7361,-0.7441,-0.6677,0.5064,-0.1356
1781766622288,-3.1384,7.7265,4.7953,-0.711,-0.7398,0.4612
1781766622326,0.5547,7.0294,5.4511,-0.5828,-0.2034,0.5186
1781766622366,-0.889,9.9648,4.2665,-0.2694,-0.3494,0.1576
1781766622406,2.587,7.7552,-3.9456,-0.4936,0.4801,-0.1668
1781766622447,14.6634,-49.0736,2.352,-0.9126,-4.017,0.686
1781766622486,4.001,-15.8037,2.9459,0.1503,0.5486,-1.3005
1781766622526,-5.6608,-7.9934,3.2071,1.6017,1.0757,-0.2004
1781766622568,-1.2044,-1.2692,1.0749,1.2908,0.5351,0.0953
1781766622607,2.5162,3.3477,1.5907,0.7575,-0.1026,0.1643
1781766622646,0.9701,11.7437,0.7918,-0.2199,-0.7929,0.3348
1781766622687,2.1833,9.8295,1.8246,-0.6903,0.0446,0.1252
1781766622726,-0.9921,8.7422,2.8075,-1.0531,0.1753,-0.3073
1781766622767,-1.8413,7.6205,5.1889,-0.8302,-0.3231,0.4319
1781766622806,0.1822,8.6449,3.7453,-0.3934,1.1704,0.1961
1781766622847,3.7307,-23.2285,-1.4652,-1.2938,-1.1564,-1.6561
1781766622886,3.7307,-23.2285,-1.4652,-1.9126,-1.6212,-0.3311
1781766622926,8.7577,-30.6337,7.0343,1.0653,2.3323,-0.7355
1781766622967,-5.1584,-8.1511,3.2157,2.0696,0.0214,0.2779
1781766623007,-0.4785,-2.942,-0.6639,2.587,1.0397,-0.0147
1781766623046,1.2278,4.6304,0.4186,0.121,-0.8332,0.2737
1781766623086,-0.8966,8.9573,-1.0622,0.3323,-1.1857,0.7294
1781766623126,-0.8966,8.9573,-1.0622,-0.2395,-0.9438,0.3732
1781766623166,-1.0311,8.1766,3.2008,-1.1222,-1.3916,0.6842
1781766623207,-1.0311,8.1766,3.2008,-1.1356,-1.9383,1.5046
1781766623246,9.8308,-2.1376,-8.3056,0.3696,-1.3916,1.5284
1781766623286,9.8308,-2.1376,-8.3056,-0.6084,1.3396,1.1435
1781766623327,-9.2631,-25.9673,14.2287,0.0226,-2.0501,3.1343
1781766623366,-4.2009,-30.6473,4.7873,1.1289,-0.2682,-0.3494
1781766623406,3.6422,-2.2343,-6.3922,3.8851,-0.317,1.449
1781766623446,3.6422,-2.2343,-6.3922,3.3072,0.1631,0.5205
1781766623486,0.2857,3.361,2.1334,4.5082,-2.8143,-4.5216
1781766623526,0.2857,3.361,2.1334,5.8448,-7.1245,-5.598
1781766623567,-23.8387,10.8541,-11.2549,4.4269,0.6567,-1.405
1781766623606,-23.8387,10.8541,-11.2549,2.5235,-0.5345,1.4227
1781766623646,-12.0608,-1.2043,10.4372,-2.2321,3.8417,7.0017
1781766623686,-12.0608,-1.2043,10.4372,-0.6078,-1.3616,9.21
1781766623726,14.2095,-15.5202,13.9337,6.4666,-1.5803,9.7488
1781766623766,14.2095,-15.5202,13.9337,7.0958,-2.7293,8.8887
1781766623806,11.5248,-6.1585,-4.2158,6.1142,-0.9352,6.2333
1781766623846,11.5248,-6.1585,-4.2158,5.3127,-1.3176,1.8692
1781766623886,5.8286,-1.4625,-6.4933,-3.1783,-2.3476,-0.6237
1781766623926,5.8286,-1.4625,-6.4933,-4.6817,-3.1661,-1.135
1781766623966,-4.8059,-2.2839,8.0189,1.0458,-4.32,-1.7116
1781766624006,-4.8059,-2.2839,8.0189,2.843,-3.7501,-0.7172
1781766624046,0.4035,-3.751,-5.6673,2.1735,-0.4252,1.3848
1781766624086,0.4035,-3.751,-5.6673,1.5223,0.3366,0.5785
1781766624126,0.854,-2.0953,1.5839,0.8412,3.6994,-0.1527
1781766624166,0.854,-2.0953,1.5839,1.2578,5.1581,-0.7233
1781766624207,-1.2555,6.6023,8.39,0.6829,0.9603,1.0018
1781766624246,-1.2555,6.6023,8.39,0.2382,2.6359,1.8173
1781766624286,0.6075,-0.2819,10.1703,-3.2962,4.1753,2.4819
1781766624326,0.6075,-0.2819,10.1703,-1.7013,0.3451,1.6994
1781766624366,3.7556,-4.495,-0.4943,0.5229,0.3745,0.6041
1781766624407,3.7556,-4.495,-0.4943,1.0519,0.5956,0.81
1781766624446,2.5689,-6.8296,-2.7508,1.1808,0.0849,1.835
1781766624486,2.5689,-6.8296,-2.7508,1.6689,0.2224,1.7202
1781766624526,3.0267,-5.5352,-4.0541,1.0061,-0.6396,0.3732
1781766624566,3.0267,-5.5352,-4.0541,0.8638,-0.3702,0.0611
1781766624606,1.6379,8.4869,3.4595,1.9328,1.6799,0.2175
1781766624646,1.6379,8.4869,3.4595,1.0928,0.6103,0.0702
1781766624687,-2.9668,8.0532,10.8055,-0.5925,-0.1332,-0.0929
1781766624727,0.5772,-0.6064,3.9487,1.5296,1.799,1.0928
1781766624766,0.5772,-0.6064,3.9487,1.7941,2.08,1.2779
1781766624806,2.1873,-7.1064,-1.6424,-2.0934,-1.2468,0.4972
1781766624846,2.1873,-7.1064,-1.6424,-2.0653,-1.0256,0.5241
1781766624886,1.2528,-7.2452,2.1,0.8118,0.0367,0.5864
1781766624926,1.2528,-7.2452,2.1,1.4691,0.2938,0.5534
1781766624966,1.8396,-6.3323,-1.9577,1.3018,-0.1063,0.2773
1781766625006,1.8396,-6.3323,-1.9577,1.1032,-0.5589,0.1057
1781766625046,1.8282,8.4767,4.0255,1.1631,0.4374,-0.2248
1781766625086,1.8282,8.4767,4.0255,0.8002,0.1136,-0.0843
1781766625128,-0.4833,10.6044,5.161,0.2767,1.5064,-1.0434
1781766625166,-0.4833,10.6044,5.161,0.0696,1.4673,-0.7575
1781766625206,-0.2866,-4.6546,-1.7688,-1.2706,-1.3109,-0.3445
1781766625246,-0.2866,-4.6546,-1.7688,-1.7862,-1.4978,-0.2022
1781766625287,3.7309,-9.3963,-1.3717,-0.7782,-0.3946,0.4368
1781766625326,3.7309,-9.3963,-1.3717,-0.5333,0.3384,0.0947
1781766625366,3.1204,-9.6619,0.9719,0.6298,3.3512,-0.7257
1781766625406,3.1204,-9.6619,0.9719,1.2828,3.6603,-0.5938
1781766625446,5.4335,-7.9365,-0.3492,0.7324,1.0562,-1.2016
1781766625486,6.9613,-2.2335,1.5301,0.1234,0.3952,-2.9016
1781766625526,-0.7399,6.6182,4.7007,-0.0544,-0.6109,-3.014
1781766625566,-0.8728,8.2564,7.419,0.4282,0.0983,-3.7379
1781766625606,-4.7018,3.1363,2.5351,0.4191,2.1979,-3.5094
1781766625646,-4.7196,-4.6091,2.0982,0.0525,1.9902,-2.7159
1781766625686,-0.4404,-5.635,3.4892,1.4154,2.6609,-2.3378
1781766625726,-0.6387,-2.9529,-1.7019,1.9768,3.0733,-1.0146
1781766625767,3.6973,-0.9512,2.1567,-0.6249,1.8076,-0.5589
1781766625806,3.6973,-0.9512,2.1567,-0.1387,1.8106,-0.3732
1781766625846,1.6973,-1.9072,4.0812,0.3604,1.0342,0.4508
1781766625886,4.4014,-2.1293,1.5891,0.6469,2.157,0.3622
1781766625926,1.1882,-0.4131,2.8685,1.3812,1.2541,-0.1093
1781766625966,-12.3872,5.0241,-12.9628,-0.6738,1.3763,-0.0495
1781766626006,-15.9198,5.9059,-3.2631,-0.7355,-1.1106,-0.4178
1781766626046,-13.9347,4.9471,0.9944,-1.3769,-0.7642,-0.9933
1781766626086,-9.8854,3.5152,-6.5713,-2.7214,0.2425,0.7807
1781766626127,-0.6035,4.3062,6.6679,0.6011,1.4911,2.9615
1781766626167,8.7423,-2.3204,-1.6879,-1.9609,0.7135,2.4911
1781766626207,8.7344,-8.5325,4.5524,-2.6096,-0.1484,3.4221
1781766626246,6.8218,-11.2872,2.9431,0.9291,-0.7782,2.7135
1781766626286,1.9226,-6.9113,0.0783,0.7465,0.3738,1.5217
1781766626326,-4.1805,3.616,-0.9141,-0.2211,0.124,1.0372
1781766626367,-4.1805,3.616,-0.9141,-0.5901,0.055,1.5974
1781766626407,-5.1701,12.6242,-4.5688,-0.3977,0.3366,1.2724
1781766626448,2.102,9.1189,3.1104,-0.3934,-0.3005,-0.3641
1781766626487,2.102,9.1189,3.1104,-0.2016,-0.4319,-0.9975
1781766626527,0.6768,-0.0701,1.5734,-0.8008,1.1625,-0.0281
1781766626567,4.0447,-4.2738,4.651,-0.9554,-0.2272,-0.8198
1781766626607,4.0447,-4.2738,4.651,-0.5516,0.2987,-0.4673
1781766626647,1.5084,-10.4485,2.9268,1.2877,1.0825,-0.0452
1781766626687,6.9234,-9.7056,1.3413,-0.7245,-0.3152,0.1026
1781766626727,6.9234,-9.7056,1.3413,-1.0873,-0.6145,-1.7471
1781766626766,-0.8932,-5.9961,2.4993,-0.9084,-0.9829,-1.5021
1781766626807,-6.3597,3.0219,4.1365,0.4362,-1.295,-0.6585
1781766626847,-7.5221,12.1051,-4.1515,0.4374,-1.3311,-2.0482
1781766626886,-12.3221,9.4914,0.8976,-1.7019,1.0,-1.8167
1781766626926,-6.433,1.9747,7.1948,-0.5229,1.9615,-1.5681
1781766626966,8.861,-3.572,3.7427,3.9517,3.8161,-2.5058
1781766627006,11.3677,-11.0332,-13.1408,1.3934,0.5089,-4.1056
1781766627046,3.4169,-6.2905,3.6721,-4.6866,0.0202,-3.8454
1781766627087,3.4169,-6.2905,3.6721,-4.8747,0.5449,-2.4367
1781766627128,11.0344,-1.5311,18.929,-2.3744,-0.1478,-0.5913
1781766627167,11.0344,-1.5311,18.929,-0.9267,-0.6665,-0.796
1781766627208,7.9491,-0.4019,13.4351,0.3995,-2.0385,-0.496
1781766627247,-10.8696,7.5332,3.8056,1.7959,-2.292,2.193
1781766627287,-17.472,7.3758,-1.6761,3.9523,1.9969,3.5082
1781766627327,-24.7836,1.4206,-10.2588,4.4935,3.0201,0.5229
1781766627368,-11.5689,-6.2327,-6.7106,0.193,-2.3017,-1.011
1781766627407,4.1316,-4.4881,2.1414,0.2193,-3.0934,-1.755
1781766627447,2.0283,-1.9147,-3.7634,0.7697,-2.1673,-1.8021
1781766627487,10.1513,-0.3659,-0.6084,-1.4355,-0.3787,0.3708
1781766627527,13.3308,-2.8622,4.4846,-2.6408,0.92,0.5455
1781766627568,11.305,-3.7673,7.2692,-2.3237,0.5657,0.1545
1781766627606,9.0811,-3.7512,5.6836,-0.9713,-0.2138,0.2034
1781766627647,8.5554,-3.671,2.1366,-0.2657,-0.4691,0.8925
1781766627688,2.6517,-2.8407,1.1933,-0.0929,-0.4777,0.9334
1781766627727,-17.3639,14.0783,2.0193,1.5156,0.3977,2.0226
1781766627767,-28.1122,12.0769,-0.2914,0.1338,3.3818,0.9468
1781766627808,-22.3671,7.2103,-0.891,-0.1368,-0.9175,-0.2828
1781766627847,-2.6909,0.107,4.1235,-0.5528,-1.4007,-0.2211
1781766627887,5.3935,-3.478,1.8876,1.7581,-0.1222,0.1173
1781766627928,7.8177,-6.1708,-3.0197,1.223,0.5559,0.81
1781766627967,10.5202,-8.9363,-0.8091,-1.4423,-0.0305,1.0611
1781766628007,12.5692,-9.4306,3.7764,-2.1545,-0.6884,0.38
1781766628046,11.6924,-7.3766,5.4789,-0.6121,-0.7159,-0.6255
1781766628087,7.907,-6.6237,2.4624,1.0763,-0.3958,-0.7966
1781766628127,4.6911,-4.8254,-0.5379,1.3787,-0.2303,0.1332
1781766628167,-1.7089,-0.9819,0.2234,0.9371,0.1491,0.8161
1781766628207,-15.4546,22.9659,2.7323,1.6231,0.5101,0.6695
1781766628247,-33.3301,16.8478,-1.8012,0.1313,2.6029,-0.058
1781766628287,-15.8978,2.6872,2.4604,-2.1325,-2.0714,-0.7373
1781766628327,1.111,-4.0663,4.5245,-0.6952,-3.3359,-0.7587
1781766628366,5.3585,-5.9079,-1.6152,2.5974,-1.5192,-0.2468
1781766628406,8.9239,-7.7448,-8.0938,1.3964,0.8674,1.2278
1781766628448,10.0573,-8.9301,0.4388,-1.7898,2.6102,1.1606
1781766628487,7.8795,-8.4008,6.7612,-1.7507,1.4936,0.3213
1781766628527,5.5054,-6.7514,6.2295,0.4123,-0.1374,-0.102
1781766628566,5.5237,-6.7928,1.4204,1.179,-0.9413,0.339
1781766628606,4.2797,-4.3854,0.2272,0.3396,-0.7349,0.8296
1781766628646,-3.9645,6.2839,2.8503,0.8699,-0.347,1.1814
1781766628687,-16.0459,24.1806,-1.2659,2.1484,1.8399,1.0269
1781766628727,-22.4998,18.8955,-5.6614,0.744,1.1429,-0.121
1781766628767,-5.532,0.7557,2.0766,-2.2626,-2.9939,-1.35
1781766628806,3.1414,-5.0548,4.3061,-0.5333,-1.5027,-2.0134
1781766628847,3.1676,-7.0236,-1.4468,1.8729,0.722,-0.0391
1781766628887,9.8106,-9.5362,-1.6805,-0.2553,1.909,1.4099
1781766628928,10.0336,-9.3728,4.71,-1.7349,1.5186,-0.102
1781766628968,6.1369,-6.9232,6.5709,-0.8784,0.8448,-1.066
1781766629006,3.0971,-6.6471,3.4923,-0.0641,-0.2908,-0.6732
1781766629048,3.0971,-6.6471,3.4923,-0.2737,-0.8247,-0.2492
1781766629087,3.4848,-4.7276,2.6859,-1.0678,-1.113,-0.1484
1781766629127,-12.9259,12.4419,3.5747,1.0372,-1.0495,0.2999
1781766629167,-18.0802,20.664,-2.5258,1.3616,2.2193,0.5663
1781766629207,-17.9407,14.2838,1.9557,-1.284,-0.9444,-1.81
1781766629247,-4.7111,0.2969,6.6692,-1.5131,-2.4881,-2.518
1781766629287,-0.7795,-2.6138,1.8458,2.0696,0.0983,-0.7776
1781766629327,9.5244,-7.356,-4.4407,2.9786,2.4471,2.499
1781766629366,13.6641,-8.9619,1.7016,0.0544,2.2181,0.587
1781766629407,4.9919,-5.741,6.0077,-0.73,-0.2816,-1.6854
1781766629446,0.5353,-4.4128,4.0184,0.2254,-0.3873,-0.6188
1781766629487,4.011,-6.6248,2.0216,0.124,-0.537,0.8271
1781766629526,5.7194,-7.6677,2.3714,0.0226,-0.7825,0.7935
1781766629567,5.1043,-6.2561,1.1717,0.3305,-0.7892,0.6365
1781766629606,-3.342,3.521,-1.6654,0.7184,-0.43,1.1619
1781766629647,-17.991,29.8604,-1.9034,1.846,1.7654,0.6591
1781766629687,-23.9523,26.3785,-8.5126,0.6774,0.4038,0.8491
1781766629726,-3.3512,3.0236,2.2895,-2.4709,-2.0507,-0.3983
1781766629767,4.5372,-6.9839,5.5531,0.2022,-0.2083,-0.9975
1781766629807,3.295,-11.0907,-0.0324,1.9505,1.2413,0.3586
1781766629847,11.387,-12.3221,1.4447,-0.0898,1.7733,2.0207
1781766629887,13.2575,-10.6004,7.0926,-0.8241,0.7617,-0.3751
1781766629927,2.1211,-5.4218,5.0596,0.7862,0.4527,-2.499
1781766629967,-2.218,-4.1709,0.7321,0.587,0.2896,-0.7807
1781766630007,4.0016,-7.4735,2.0035,-1.7171,-0.3457,0.6805
1781766630048,4.7416,-6.9545,3.9595,-1.8802,-1.0544,0.0195
1781766630087,-8.9473,5.9277,1.623,0.4594,-0.9169,0.3653
1781766630127,-17.2766,25.6685,-5.6652,1.9474,-0.3665,0.8644
1781766630167,-12.2493,20.0269,-4.3734,-1.0171,0.6048,-0.4698
1781766630206,-3.2939,1.5999,4.4123,-3.0684,-1.2242,-2.1625
1781766630246,-1.0289,-4.4864,5.7511,-0.0342,0.1038,-1.595
1781766630287,4.4428,-7.2289,0.4669,2.565,0.6176,0.8088
1781766630327,11.957,-9.3731,-1.1298,1.1619,1.4233,1.6927
1781766630366,12.1884,-8.6502,4.376,-0.4435,1.2126,-0.0764
1781766630407,2.9886,-4.3818,5.6703,0.0819,0.2346,-1.6078
1781766630446,-0.7074,-3.3091,2.6244,0.0886,-0.1002,-0.124
1781766630488,3.2497,-5.0677,2.6807,-1.0629,-0.5919,1.237
1781766630527,-0.2221,-2.4515,3.7073,-0.4496,-0.4734,1.0183
1781766630566,-9.4799,18.0458,-0.0823,1.3463,0.8961,0.5889
1781766630607,-16.0885,16.7045,-5.6931,0.2272,0.8375,0.2608
1781766630647,-9.3734,8.6693,-0.4433,-3.1417,-1.722,-1.8589
1781766630687,-2.1847,-0.5714,6.9459,-1.719,-1.339,-2.036
1781766630727,0.1269,-4.6037,1.2053,2.6505,0.6286,0.204
1781766630767,11.1029,-8.3717,-3.4484,2.5815,1.8937,2.0824
1781766630807,13.5561,-10.3865,2.4485,-0.7233,2.0293,0.4294
1781766630847,7.5477,-7.5147,7.561,-1.4923,0.2285,-1.4728
1781766630888,2.4205,-5.2808,6.1844,-0.9297,-0.868,-1.3763
1781766630927,3.1665,-5.2956,4.3249,-0.7178,-0.9542,-0.022
1781766630968,3.4768,-5.8227,3.3014,-0.3274,-0.9126,0.8406
1781766631007,-8.4015,10.6266,2.7928,1.8827,0.1845,0.8528
1781766631047,-22.259,17.1435,-2.6136,1.4985,1.6402,-0.7233
1781766631087,-24.6105,12.2446,-3.186,-0.2926,-1.7208,-1.9053
1781766631127,-7.6389,3.5854,2.0309,-0.325,-2.2064,-1.0855
1781766631167,1.6011,-1.3654,-2.6739,2.0672,-0.1662,0.846
1781766631208,9.8364,-5.8317,-4.375,1.6255,1.416,2.4954
1781766631248,13.6477,-10.9754,-0.8231,-1.8882,1.1515,1.6487
1781766631288,12.0567,-11.175,5.7578,-3.4044,0.1778,-0.3635
1781766631327,4.7197,-7.5025,7.4431,-1.7507,0.1759,-1.4759
1781766631366,-0.504,-5.0959,5.168,-0.0293,0.3622,-0.1576
1781766631407,0.3818,-4.0139,3.8201,0.4789,-0.3549,1.5485
1781766631446,-1.371,6.7804,2.3707,1.0146,-1.0806,0.8259
1781766631487,-30.3962,19.7261,0.7254,0.6396,1.273,0.1857
1781766631527,-12.6515,11.2081,1.9901,-0.3891,-1.6359,0.1582
1781766631568,-1.0714,-1.1526,0.9289,-0.5205,-1.9804,-1.2535
1781766631607,4.0459,-5.9588,0.0515,0.6432,-0.876,-0.6567
1781766631648,9.2214,-8.7516,-3.8094,1.5803,0.3433,0.9004
1781766631686,13.2579,-10.8333,-2.2559,0.2126,1.6554,0.5162
1781766631727,8.7347,-7.725,3.6138,-0.339,1.8637,-1.4734
1781766631767,0.6758,-3.0168,3.8437,0.4355,0.9658,-1.7605
1781766631807,0.6626,-3.4283,0.4867,-0.1607,-0.2981,0.2077
1781766631848,3.7647,-3.8798,2.1218,-1.6512,-1.2449,0.631
1781766631887,-6.5584,7.4775,3.3307,-0.4453,-0.9743,0.6872
1781766631926,-30.3943,18.8845,6.3668,0.1014,2.857,0.4991
1781766631967,-19.7958,12.9446,1.2572,0.0849,-1.8289,-0.19
1781766632008,-1.8256,1.0225,2.4078,-0.2877,-1.8033,-0.248
1781766632048,7.1444,-4.3338,0.7715,2.262,-0.8913,-0.3659
1781766632087,10.3022,-7.0645,-5.2302,2.6945,0.2596,0.0324
1781766632128,11.4957,-10.1857,-4.9872,-1.088,1.0085,0.5596
1781766632167,9.9961,-11.1756,3.5922,-3.0684,1.3317,-0.452
1781766632207,4.615,-6.4179,8.343,-1.551,0.8741,-1.4575
1781766632247,-1.3547,-3.5354,5.3296,0.8033,-0.0409,-0.6585
1781766632287,1.3416,-4.639,0.4106,0.934,-0.89,1.2181
1781766632327,-5.8158,2.7886,1.9776,0.5834,0.2004,1.4197
1781766632367,-25.5779,20.9284,-1.7822,1.281,1.4478,-0.2529
1781766632407,-22.9685,13.0566,-4.4267,-2.3549,-0.4441,-0.3195
1781766632447,-4.2072,2.4504,7.0604,-3.7037,-1.6591,-0.4081
1781766632487,6.2202,-2.2338,6.7187,1.4551,0.295,0.4948
1781766632527,7.3,-6.8368,-3.1625,4.1429,1.3879,1.5076
1781766632567,11.3521,-12.3985,-4.6934,0.6194,1.8216,2.259
1781766632607,10.7093,-13.0817,4.6321,-2.1887,1.1252,0.1674
1781766632648,3.6268,-7.5293,9.2532,-0.9768,0.0867,-1.2785
1781766632687,-3.7676,-2.9484,4.8768,2.0604,-0.6457,-0.2395
1781766632728,0.829,-6.0501,-0.6853,2.1258,-0.3268,2.113
1781766632767,2.787,0.6994,-1.5883,0.7715,-0.9572,1.5626
1781766632807,-6.4193,18.8233,-3.3052,-0.4484,0.0342,-2.2162
1781766632847,-27.7963,18.5695,-3.9185,-1.2572,0.9878,-1.7746
1781766632887,-7.7979,5.989,5.2618,-2.7471,-2.7049,-0.9181
1781766632927,4.1581,-1.2791,5.9135,0.7043,-1.8161,-0.281
1781766632967,6.4434,-6.1561,-1.2762,3.8955,0.6237,0.8289
1781766633008,8.4288,-8.8631,-4.2473,2.0837,1.6438,1.3518
1781766633048,8.3091,-10.5224,1.8407,-1.9487,1.6383,0.2975
1781766633087,4.1994,-8.5822,6.9484,-2.1374,1.4068,-1.1063
1781766633128,-1.1015,-6.6744,7.2552,-0.1368,0.4068,-0.9255
1781766633167,0.1548,-8.3295,3.1622,0.5589,-0.8155,0.4801
1781766633207,-2.4047,-5.708,0.5267,0.6145,-0.292,0.8491
1781766633247,-12.6363,18.7697,-3.0633,1.5711,1.7324,-1.19
1781766633287,-22.9935,18.1001,-11.151,-0.8344,-0.237,-2.7764
1781766633327,-4.536,7.4797,2.4917,-3.8741,-3.0635,-1.2956
1781766633368,8.7032,0.5796,5.7824,-0.7049,-1.3488,-0.686
1781766633407,9.129,-4.1693,2.5762,1.6866,0.11,-0.5913
1781766633447,7.2122,-6.2125,0.1489,1.3531,-0.2578,-0.0702
1781766633487,7.6339,-7.4258,0.9972,0.3519,-0.1772,0.7807
1781766633527,7.7049,-8.7738,2.7646,0.3775,0.1564,1.1777
1781766633567,5.4939,-9.5309,1.6878,1.2761,0.9688,0.9493
1781766633607,0.0082,5.2734,0.5575,3.0672,3.7984,0.8595
1781766633648,-12.2078,1.731,-15.5066,2.4013,3.7868,-2.8198
1781766633688,-25.8164,6.4759,-15.2413,-3.5937,0.0531,-5.7861
1781766633728,-7.3155,-0.1826,6.7703,-5.6554,-2.6114,-1.0904
1781766633767,6.3623,-2.0385,8.6456,0.7923,1.0849,1.4887
1781766633807,8.3658,-4.082,-1.4853,5.6456,3.1142,0.9682
1781766633847,4.4289,-4.1684,-6.2014,2.4948,2.3329,-1.3286
1781766633888,-0.4665,-0.803,-0.671,-1.7404,1.0269,-2.4483
1781766633928,-2.6931,0.1168,2.7242,-3.0543,0.9682,-2.3714
1781766633967,-4.3528,-0.0732,6.5736,-3.4086,0.6774,-2.0629
1781766634007,-4.7745,0.542,8.5347,-2.2016,-0.6677,-1.0757
1781766634048,-1.7251,0.3683,5.8425,0.5925,-0.8015,0.1045
1781766634087,0.661,-0.4119,0.8223,1.5999,-0.4569,0.2865
1781766634129,0.5064,-0.7207,-1.0808,0.0776,-0.6677,-0.3476
1781766634167,0.3888,-1.4204,1.3431,-1.2883,-1.4337,-0.6219
1781766634208,1.9746,-1.9508,3.0953,-1.6383,-2.3812,-0.9945
1781766634247,3.7313,-1.7244,3.6061,-1.5211,-3.1447,-1.1985
1781766634287,4.1826,-1.5247,3.2905,-1.0122,-2.8729,-0.8882
1781766634328,0.5949,0.0869,2.3778,0.35,-2.2498,-0.2224
1781766634367,-4.1777,3.2754,1.4459,1.262,-1.5033,0.7349
1781766634407,-14.1779,5.9741,3.3525,2.0843,0.3323,1.0574
1781766634447,-30.6573,7.678,-0.135,2.0604,0.9756,1.7104
1781766634488,-11.5977,0.3519,-2.0493,0.1216,0.1991,1.9493
1781766634527,0.214,-3.9846,1.6684,-1.1906,-0.4203,0.9737
1781766634567,8.1221,-6.1537,4.4413,-1.2046,-1.1741,0.7446
1781766634609,10.3104,-8.0796,2.9727,0.1161,-1.449,0.606
1781766634648,10.2477,-8.8681,-0.8016,1.2272,-1.2065,0.7679
1781766634687,10.5432,-9.0091,-3.0298,1.493,0.5284,1.1429
1781766634727,9.1671,-8.0096,-0.6632,0.7391,1.0635,0.8033
1781766634767,0.8029,-3.7981,0.9063,0.1368,-0.168,0.1588
1781766634808,-8.073,4.9518,2.7788,0.653,-0.9853,0.5962
1781766634847,-16.2316,13.6846,2.0122,1.2504,0.595,0.9096
1781766634888,-18.2227,9.8158,0.9272,-1.6023,-0.5889,-1.4288
1781766634928,-7.4792,2.1339,5.8499,-2.0482,-2.4673,-1.843
1781766634967,-0.4403,-1.6552,3.8794,-0.0238,-2.1521,-2.113
1781766635006,2.6187,-4.2436,-2.9327,2.4685,1.4893,1.3885
1781766635047,10.3783,-7.7077,-4.8363,1.394,1.6939,1.6402
1781766635087,12.4691,-9.6549,-0.6909,-1.3018,0.992,-0.0544
1781766635127,8.8223,-7.782,4.1835,-1.8149,0.0043,-1.6848
1781766635167,4.0589,-4.8346,4.3676,-0.8363,-0.7654,-1.3842
1781766635207,4.5326,-2.7225,2.2403,-0.4832,-0.9841,0.2266
1781766635247,-2.2236,2.1423,3.2487,-0.3158,-0.9004,0.752
1781766635287,-16.1319,18.7538,6.6107,0.0348,2.2174,1.8583
1781766635327,-22.4712,10.2859,2.0641,-1.5308,0.9688,0.9102
1781766635367,-10.3868,-0.3746,6.5474,-4.2565,-4.4239,-1.1851
1781766635407,0.3951,-2.9897,7.4045,-1.6286,-3.3494,-1.9426
1781766635447,-0.4917,-5.025,-1.2429,5.2137,1.9004,1.2724
1781766635487,8.3238,-8.0579,-8.7315,5.0378,1.8589,1.8051
1781766635528,13.6883,-9.1077,-11.3752,1.1387,0.0061,0.3335
1781766635568,10.3119,-7.7279,-4.0554,-3.5155,-1.2437,-2.0049
1781766635607,3.4736,-4.3751,0.7708,-3.4844,-1.9761,-0.5699
1781766635647,-2.9306,-0.019,5.1291,-2.9199,-2.6127,0.5492
1781766635687,-6.4378,-0.1257,7.4534,-0.6041,-1.9358,1.9352
1781766635727,-5.4537,9.4225,10.5728,-2.011,-1.3182,0.4783
1781766635767,-10.7755,0.0173,9.7581,-5.1777,-2.0873,-0.0476
1781766635808,-0.5582,-5.9163,14.0054,-1.2095,-0.8882,-0.8552
1781766635847,0.6265,-3.5262,1.1548,2.3286,0.8754,-0.5113
1781766635887,1.4015,-4.3593,-10.7095,0.8693,0.7691,-0.3134
1781766635927,3.7025,-5.7763,-8.7992,0.0709,1.0153,-0.2175
1781766635967,3.619,-4.991,-5.368,0.3806,1.1277,0.3207
1781766636007,5.9219,-4.7487,-4.8108,0.0507,0.3922,0.5272
1781766636047,8.1606,-2.6608,-1.7472,0.4209,-0.0067,0.0825
1781766636088,-0.6772,3.8726,5.0801,2.4471,0.6774,1.3983
1781766636128,1.1294,9.5923,11.349,2.6377,2.7171,0.2053
1781766636167,-19.96,9.0655,14.7532,1.6139,1.4875,-0.6848
1781766636207,-13.9309,1.9594,10.756,3.1075,-0.7202,-0.0269
1781766636246,1.1222,-5.8001,0.0642,4.8888,2.3146,-0.4783
1781766636287,5.6956,-10.7313,-4.0487,4.6004,2.8026,-0.821
1781766636328,7.7501,-10.5244,-6.1657,1.5864,1.2993,-1.3292
1781766636367,9.2556,-9.2475,-3.2318,-1.4832,0.2816,-2.2804
1781766636407,7.2738,-6.2611,2.0127,-1.956,0.526,-2.5314
1781766636448,2.682,-2.1172,4.0155,-1.5895,0.6469,-0.8894
1781766636487,4.4459,-1.4397,4.3774,-1.3018,-0.1466,0.2547
1781766636527,4.1104,-0.2207,4.0443,-0.033,-0.5693,0.4881
1781766636567,-4.4154,9.1899,2.843,2.0091,1.3182,0.2419
1781766636606,-33.6452,23.0231,-3.2894,0.7214,2.2407,0.0031
1781766636647,-31.5822,12.0464,-4.3446,-2.3683,-3.8228,1.5266
1781766636687,-1.0905,-1.7461,3.8673,0.0666,-3.4147,0.6206
1781766636727,5.8326,-8.6229,-3.5776,1.5553,0.43,1.2327
1781766636767,10.6059,-12.232,-6.5028,-0.5932,1.1997,1.1356
1781766636807,13.9661,-13.5039,-1.3081,-1.9804,1.3537,-0.4288
1781766636846,10.9591,-11.0327,4.9726,-1.0971,1.2346,-1.8827
1781766636887,4.4238,-7.1972,4.7729,-0.237,0.6707,-1.1063
1781766636927,5.0488,-4.3914,3.5997,-0.0562,-0.3806,0.6255
1781766636966,10.1965,-3.3895,2.6029,0.0941,-1.2217,0.9511
1781766637007,-3.2433,9.336,-1.3964,0.292,1.1625,2.2987
1781766637046,-18.4052,34.2088,9.419,0.6695,0.0513,0.9975
1781766637087,-37.4727,20.3823,2.9634,-0.7477,-2.9951,1.9254
1781766637128,-2.5188,-0.5754,3.4875,0.4533,-1.763,-0.6335
1781766637168,0.6996,-7.3464,1.0495,1.5424,0.4649,-1.2211
1781766637207,2.7013,-10.2665,-1.3802,1.6542,0.5486,-0.3635
1781766637247,9.1685,-11.4487,-4.2592,-0.3512,0.3457,-0.4911
1781766637287,12.9543,-12.0434,-0.372,-1.0195,0.2523,-1.6316
1781766637327,10.4685,-8.6885,2.8629,-0.077,0.9859,-2.0024
1781766637367,5.2509,-4.4103,2.1085,0.3421,1.3622,-0.6774
1781766637406,6.5817,-3.8728,1.732,-0.328,0.1442,-0.1668
1781766637447,6.5713,-2.5311,0.9895,-0.898,-0.4679,0.3769
1781766637487,-4.6806,5.2686,4.3229,1.1759,0.595,1.6151
1781766637526,-15.0183,25.917,-0.0186,0.8906,2.1484,2.2034
1781766637567,-26.7536,20.0886,-1.7128,-2.7355,-1.507,0.5767
1781766637607,-12.4862,3.9224,8.6716,-1.3842,-3.4563,-0.0996
1781766637648,2.8974,-5.6398,7.3009,3.2632,-0.92,-1.3946
1781766637687,0.1934,-8.8283,-4.2492,4.317,1.1387,0.43
1781766637727,9.4956,-9.8422,-9.2241,1.1332,1.8198,0.6744
1781766637766,13.1837,-11.5943,-3.2325,-2.1808,1.0623,-1.4856
1781766637806,9.1627,-8.9793,4.6322,-2.0305,0.7092,-2.6237
1781766637848,-0.8629,-3.8648,6.9095,-0.6872,0.5223,-0.6677
1781766637887,2.6523,-3.8826,5.6169,-0.4606,-0.4362,0.8711
1781766637927,8.4856,-5.1343,4.1783,-0.2596,-1.171,1.036
1781766637967,-0.8911,1.1414,4.1502,2.0776,-0.2211,1.8668
1781766638007,-7.2995,24.4441,-2.4487,1.6438,2.0476,0.8619
1781766638046,-25.8603,20.5324,-6.5256,-2.5998,-1.8521,-0.1778
1781766638087,-10.2036,3.924,4.547,-2.1423,-2.7416,-0.8552
1781766638126,4.509,-5.8757,10.4344,3.4019,-0.5522,-2.1454
1781766638167,2.6051,-9.7309,-2.6598,3.97,0.9536,-0.5791
1781766638207,9.6354,-6.9204,-6.7306,0.0855,1.077,0.3848
1781766638247,13.491,-9.8012,1.2411,-1.5944,0.0556,-1.0782
1781766638287,10.1508,-7.121,6.6059,0.1918,0.3506,-1.8931
1781766638327,1.3295,-2.121,4.2589,1.4771,1.0525,-0.0385
1781766638368,2.5041,-2.6007,0.9397,0.4447,0.5235,1.2498
1781766638407,3.5203,-3.9264,0.6471,-0.4056,0.0538,1.1448
1781766638447,-9.3326,5.9841,0.3976,0.8057,-0.5803,1.0336
1781766638487,-21.557,18.9731,-11.2215,-1.6426,1.4319,-0.6603
1781766638527,-25.0744,15.3112,-1.0042,-4.0543,-2.1564,-0.0024
1781766638567,-3.8327,3.359,13.0147,1.0391,-1.2767,-0.631
1781766638607,2.9843,-5.5981,4.976,4.3097,-0.0226,-0.6493
1781766638648,4.2027,-7.2599,-5.0675,2.1154,0.8876,1.1173
1781766638687,12.4043,-9.4766,-6.6005,-2.2553,-0.1619,0.4068
1781766638727,14.3541,-11.4494,3.3358,-2.6499,-0.245,-1.2333
1781766638768,8.3116,-7.4877,4.94,-1.0525,0.8485,-1.3598
1781766638807,4.2973,-4.5671,3.9671,-0.4856,1.1032,-0.0238
1781766638847,5.3819,-3.2528,3.5781,-0.5345,0.1851,0.7318
1781766638887,-0.771,1.9477,4.0166,0.923,0.1368,1.4783
1781766638927,-9.4864,21.538,-1.1738,1.7141,2.0085,1.8399
1781766638967,-20.6876,21.0211,-8.1861,-2.2516,0.664,-0.2474
1781766639007,-17.5261,7.5115,2.4316,-3.6206,-2.6713,0.5565
1781766639046,0.856,-3.9711,12.7873,1.8827,-0.9841,-0.2431
1781766639087,2.4333,-10.5039,2.5695,4.3304,-0.3103,0.0629
1781766639127,5.6322,-10.4897,-5.4668,1.6194,-0.0489,0.9847
1781766639166,13.1736,-11.2035,-3.0841,-1.5797,0.0299,-0.4924
1781766639207,10.747,-10.2734,3.6109,-1.8106,-0.077,-1.9065
1781766639247,3.5487,-6.8833,4.6863,-0.9316,0.0232,-0.8674
1781766639287,3.0443,-5.3252,3.8172,-0.3018,0.0049,0.661
1781766639327,3.2143,-2.9098,1.9731,0.3189,0.0666,0.8949
1781766639367,-4.3843,12.1082,0.0533,0.38,-0.256,0.0489
1781766639408,-23.6626,25.1741,1.111,-0.6964,1.1368,-0.5968
1781766639447,-29.0613,18.4782,4.0441,-1.2761,-1.8021,0.912
1781766639487,-2.5074,0.1675,5.1094,0.6768,-2.0598,0.2419
1781766639526,6.1139,-8.2379,-1.4757,1.6377,-0.6341,-0.0812
1781766639566,8.3115,-10.3814,-5.3948,-0.1936,-0.6829,0.0678
1781766639606,9.9908,-11.3578,-5.5955,-2.1118,-0.16,0.0037
1781766639647,9.5849,-10.2749,0.5047,-1.3549,1.2425,-0.6622
1781766639688,4.5804,-7.3419,3.0746,-0.2804,1.2559,-0.3439
1781766639727,2.7957,-2.9659,0.9275,-1.4667,-1.1044,0.0024
1781766639766,-1.5547,2.6781,-0.7011,-3.4098,-3.5778,0.6939
1781766639807,-4.8622,12.1269,6.5225,-1.9083,-2.3305,1.6817
1781766639847,-9.9267,17.3219,7.4388,-2.4422,1.0574,2.3219
1781766639887,-13.1715,5.3417,10.2062,-4.0757,-0.7715,1.799
1781766639928,-2.0007,-4.3343,10.6666,-1.8931,-2.5632,0.7563
1781766639967,4.2245,-5.4742,0.2028,0.587,-1.1869,-1.0904
1781766640008,-2.2706,-5.4999,-7.1924,0.0067,-0.6035,0.1118
1781766640047,1.6263,-6.6929,-7.7984,-0.4875,-0.0751,1.0153
1781766640088,3.043,-8.5479,-6.5531,-1.0415,1.1332,1.3891
1781766640127,2.9891,-8.8259,-0.1057,0.3482,-0.6103,1.0653
1781766640168,1.2306,-7.3158,-0.7598,0.6842,-0.3977,0.2254
1781766640207,2.4075,-0.9028,-0.1999,-1.0122,-1.708,-0.2498
1781766640248,1.5116,7.7399,9.3511,0.7055,-0.8277,-0.0501
1781766640287,0.9502,10.013,14.0629,0.292,0.1881,1.0037
1781766640327,-0.9813,5.2658,14.7976,1.1973,-2.0702,-0.4722
1781766640367,-2.4469,0.3984,0.4855,0.9108,-0.7782,0.3305
1781766640408,0.6478,-7.1626,-7.9337,-2.6041,-0.3751,-0.5003
1781766640448,-2.8488,-9.5949,0.0812,-1.1668,-1.0928,-0.3885
1781766640486,-1.1726,-7.6122,-4.5819,0.4166,0.6212,0.3427
1781766640527,1.8678,-7.299,-7.2269,-0.6481,0.631,0.0287
1781766640568,0.9596,-7.069,-2.27,-0.4239,-0.4679,-0.1301
1781766640608,2.738,-4.8784,-1.934,0.6261,-0.5644,-0.7587
1781766640648,0.0283,1.8783,-0.8596,1.0311,0.744,-0.7422
1781766640687,1.1528,12.1117,8.9884,2.0,0.2773,-0.102
1781766640727,5.7667,12.0063,6.9167,-0.6493,-0.2792,-1.0672
1781766640767,-5.6746,6.2155,12.2688,0.1539,0.7789,0.4911
1781766640807,-0.7128,-3.804,4.5191,-0.6451,-0.6365,0.1979
1781766640847,0.0284,-5.7793,-1.5828,-1.9707,-1.4313,-0.146
1781766640888,-0.263,-6.2945,-1.5499,-0.4783,-0.3183,-0.091
1781766640928,-0.0222,-6.5492,-4.6578,0.46,0.6243,-0.1497
1781766640968,-1.7998,-7.415,-5.1888,0.8241,0.4044,0.1631
1781766641007,0.3408,-9.3606,-5.9713,1.551,1.4178,0.3818
1781766641047,1.9022,-9.325,-4.0824,2.0525,2.7617,0.0452
1781766641088,0.9486,0.4389,6.4019,5.2186,4.1258,0.1655
1781766641128,-2.3424,14.9423,8.5645,5.2369,1.5595,0.7666
1781766641168,1.358,14.9739,3.4343,1.7953,-2.1594,0.3891
1781766641207,5.9849,5.3417,1.7433,3.1777,1.5278,0.0941
1781766641247,4.9929,-6.457,-0.0958,2.1802,3.5693,-2.4679
1781766641287,-9.8042,-6.4123,4.8628,0.9346,-1.1875,-2.4569
1781766641328,-3.8189,-8.2758,0.1766,1.3702,-0.9914,-1.606
1781766641368,4.6014,-10.2132,-4.3793,0.6414,1.0574,-2.4416
1781766641408,5.1399,-10.6801,-1.8666,-1.2126,0.416,-3.2944
1781766641448,1.2352,-7.5987,1.0934,-1.7746,0.0666,-2.0788
1781766641487,6.5702,-6.1322,2.8272,-1.339,0.0342,-1.7257
1781766641528,1.9934,-0.6181,3.4336,-0.2657,-0.3952,-0.8858
1781766641567,-8.5309,10.2582,4.5006,1.6512,0.383,-0.1784
1781766641607,-22.0192,19.6006,-1.2997,0.8155,1.3952,-1.6903
1781766641646,-30.2356,12.7961,-0.1686,-0.5345,-1.6817,-0.4044
1781766641687,-6.2981,0.3592,2.2983,0.3946,-0.9065,-1.9285
