timestamp_ms,acc_x,acc_y,acc_z,gyro_x,gyro_y,gyro_z
1781765946661,0.5617,-0.1684,-0.7449,0.0727,0.4252,-0.0812
1781765946701,0.232,-0.2207,-1.1827,0.0727,0.4252,-0.0812
1781765946741,0.9718,-0.8395,-1.7938,0.4533,1.6915,0.0238
1781765946782,0.9371,-0.6148,-1.0453,0.8106,2.0995,-0.0959
1781765946821,4.0748,-1.0632,-3.73,1.1784,2.8283,-0.6475
1781765946861,2.1985,-1.1117,-3.2596,1.6408,4.1661,-2.4312
1781765946901,-0.4271,-1.4937,-1.5693,3.2119,6.149,-3.1502
1781765946941,-0.2741,-1.9511,-2.7906,5.9388,5.3219,-3.8698
1781765946982,-7.3012,-0.8093,-6.4176,4.6377,3.8478,-4.1197
1781765947021,-8.641,0.5269,-8.2372,3.6609,1.3592,-3.6102
1781765947061,-10.107,1.5495,-9.3255,2.328,0.2773,-2.97
1781765947101,-9.557,2.5827,-9.9216,1.6829,0.1655,-1.7501
1781765947141,-8.0148,2.6671,-8.5785,0.865,-0.5406,-1.0739
1781765947182,-8.5139,4.9044,-15.1353,0.2737,-0.5699,0.0806
1781765947221,-7.0052,3.0724,-4.7344,-0.9639,-0.766,0.9609
1781765947261,-3.3316,1.6294,-8.0128,0.6921,1.1558,1.1924
1781765947301,-1.2153,0.6362,-5.471,1.1735,1.504,0.661
1781765947342,-4.6803,4.0364,-6.3374,1.3561,1.0733,1.4496
1781765947382,3.7598,1.6622,-5.7805,0.752,1.4184,1.8118
1781765947422,5.9797,-0.8852,-5.6019,0.6799,1.3097,0.3842
1781765947461,0.1406,1.3506,-6.5106,0.2046,0.3604,-0.2205
1781765947501,-3.8195,-1.1986,-5.8528,-0.0409,-0.0794,-0.0916
1781765947541,-1.1168,-2.3523,-7.548,0.2346,0.4001,0.0214
1781765947581,1.5681,-0.2661,-7.1674,-0.1344,0.9071,-0.6267
1781765947621,0.6068,-1.664,-3.3152,-1.1576,-0.5186,-1.6738
1781765947661,-1.1932,-0.1051,-8.4663,-0.9756,-1.0837,-1.6145
1781765947701,0.2035,-0.2306,-7.2149,0.0629,0.1179,-1.4636
1781765947741,4.499,3.1436,-2.5664,-1.2828,-2.4557,-2.2156
1781765947781,-3.4869,-0.7987,-3.5689,-0.3696,-0.7825,-0.8949
1781765947821,-0.6625,-1.6942,-5.9801,0.4917,0.2107,-1.2254
1781765947861,-1.8545,-1.5542,-5.0835,0.5412,0.1399,-0.8522
1781765947901,-6.8677,-1.4887,-6.6362,0.3763,-0.1619,-0.2407
1781765947941,-5.6969,-2.6101,-6.2892,-0.1112,-0.4062,0.526
1781765947981,2.5041,1.8567,-6.2374,-0.5651,0.3067,-0.5993
1781765948021,-0.6573,3.1504,-5.6388,0.2926,0.0861,-0.2822
1781765948061,-1.4194,0.1044,-6.3043,0.5089,0.4704,0.2077
1781765948101,-1.4987,-1.3176,-7.0665,-0.3665,0.3952,0.0831
1781765948141,-0.3052,-1.4659,-6.9129,0.0574,0.6439,-0.2773
1781765948181,1.9127,3.9828,-7.9643,-0.6811,0.6689,-1.1069
1781765948221,1.8589,4.3373,-5.295,0.2981,0.5131,-1.4905
1781765948261,-0.5921,-0.5355,-5.8186,1.0311,1.1496,-1.0733
1781765948301,-1.0627,-0.6824,-4.8037,1.0892,0.2413,-0.7025
1781765948341,-2.0657,-5.294,-5.9306,0.6591,0.0501,0.1173
1781765948383,-1.1545,-6.1746,-7.5923,0.1533,0.1124,-0.5461
1781765948421,2.5722,-4.3768,-5.1117,1.0507,1.077,-3.0739
1781765948461,5.1501,3.5729,-7.475,0.0183,1.7233,-4.9376
1781765948501,-0.7563,-0.4799,-4.6356,0.1344,-0.2358,-1.1588
1781765948541,1.4265,-1.6794,-8.1016,0.3494,1.0018,-1.4667
1781765948582,4.3325,6.0328,-4.8823,0.7068,1.2614,-0.7526
1781765948621,0.9109,-3.7721,-5.5739,-0.4178,0.7477,-1.6304
1781765948661,-0.3129,-6.5511,-6.6836,-0.8027,0.6463,-1.1503
1781765948701,1.5764,0.4225,-6.5134,-0.9957,-0.223,0.212
1781765948741,0.8421,-2.0256,-5.4247,-1.4795,-0.2957,0.9847
1781765948781,0.7085,1.2216,-8.1148,-1.0611,-0.4062,0.9145
1781765948821,3.5368,3.3236,-6.2011,-1.6994,0.3659,0.4917
1781765948861,1.4227,1.5777,-2.6043,-1.595,-0.4349,0.5596
1781765948901,1.1833,0.1145,-7.0621,-1.9389,-0.1362,0.7117
1781765948941,0.9003,0.6723,-3.6986,-1.7514,-0.0409,0.6231
1781765948981,1.6061,2.9376,-4.3372,-1.5174,-0.2694,0.8925
1781765949021,0.2933,3.6667,-5.6422,-1.4948,0.0043,0.879
1781765949061,-0.259,1.0222,-6.0617,-1.5907,0.0464,0.7862
1781765949101,2.113,3.1832,-5.4245,-1.5522,0.5308,0.6255
1781765949141,1.0602,3.2545,-5.7703,-1.5773,0.3256,0.5803
1781765949181,2.144,1.9044,-3.7184,-1.5944,0.5431,0.5504
1781765949221,1.54,2.9341,-4.3351,-1.7459,0.5809,0.427
1781765949261,1.0831,2.4499,-4.3232,-1.6664,0.5302,0.2755
1781765949301,1.3826,2.7558,-2.1663,-1.5632,0.2309,0.2511
1781765949341,1.5201,3.2174,-4.2427,-1.5382,0.0147,0.3128
1781765949381,2.6101,2.7663,-1.5395,-1.496,-0.0751,0.1252
1781765949421,1.1811,2.3903,-3.6712,-1.408,0.1869,0.1264
1781765949462,1.5456,2.9662,-1.9074,-1.3512,0.2181,0.0996
1781765949501,1.3448,3.099,-3.1326,-1.0281,0.16,0.0684
1781765949541,0.6991,2.8854,-3.3116,-0.7941,0.19,0.0886
1781765949581,1.8718,3.4032,-3.3335,-0.4539,0.3818,0.0367
1781765949622,1.4543,3.4333,-3.4823,-0.0214,0.0122,-0.011
1781765949661,0.9347,4.0541,-3.4453,0.4282,-0.047,-0.0721
1781765949701,0.7829,3.9739,-2.6351,0.8198,-0.0898,-0.0428
1781765949741,1.4194,3.6125,-2.9107,1.1228,-0.1735,-0.0232
1781765949781,1.5096,3.2916,-2.6306,1.3555,-0.3238,-0.0721
1781765949821,1.376,3.0056,-2.5329,1.5711,-0.4142,-0.1558
1781765949862,0.8224,2.8604,-2.8738,1.7556,-0.3231,-0.1607
1781765949901,1.283,2.3872,-3.4203,1.7636,-0.4435,-0.1784
1781765949941,1.3144,2.8422,-2.6359,1.8839,-0.4239,-0.1955
1781765949982,0.9122,2.9034,-2.669,1.854,-0.4588,-0.2089
1781765950021,1.309,2.6432,-2.2797,1.8686,-0.4294,-0.4111
1781765950061,1.2561,2.6312,-2.2902,1.7385,-0.3262,-0.6292
1781765950101,1.1625,1.8703,-1.5409,1.6994,-0.2608,-0.5999
1781765950141,1.1791,1.436,-1.926,1.6799,-0.193,-0.6946
1781765950181,0.7931,1.5974,-1.4091,1.7019,-0.1509,-0.7135
1781765950221,0.5233,2.0991,-1.6785,1.7214,-0.1002,-0.6561
1781765950262,-0.3982,1.3925,-1.1831,1.7,-0.124,-0.7043
1781765950301,1.2028,1.444,-1.567,1.4978,0.066,-0.6249
1781765950341,1.1879,1.5704,-1.6186,1.4392,-0.0153,-0.744
1781765950381,1.337,1.2742,-1.711,1.3995,-0.1918,-0.73
1781765950421,0.766,0.5996,-1.296,1.5357,-0.0739,-0.7563
1781765950461,0.7007,0.7938,-0.9045,1.441,-0.0263,-0.5315
1781765950501,1.2202,2.1267,-1.7193,1.0812,0.1381,-0.4862
1781765950541,1.1485,1.4764,-2.2474,0.6145,0.1093,-0.4056
1781765950581,-0.466,-1.6626,-3.0567,-0.0593,-0.0159,0.0348
1781765950621,1.6559,-0.9863,-2.1576,-0.2071,-0.1368,0.0709
1781765950662,0.7357,0.7827,-1.5006,0.0031,0.1411,0.0415
1781765950701,1.2661,0.4098,-0.1087,0.1191,-0.1191,-0.0104
1781765950741,1.3402,-0.3102,-1.7719,-0.0006,-0.1008,-0.1008
1781765950781,-0.3282,-0.1335,-2.4272,-0.1943,-0.0305,0.0293
1781765950822,-0.0515,0.0207,-1.3807,-0.2889,-0.0794,0.1949
1781765950861,0.7402,-0.1201,-1.5467,-0.4667,-0.1692,0.2132
1781765950901,0.2565,0.2447,-0.8812,-0.5357,-0.1839,0.295
1781765950941,0.1872,0.9023,-1.4919,-0.8949,-0.0794,0.4557
1781765950981,0.1811,0.5424,-1.3738,-1.3677,-0.0531,0.6445
1781765951021,0.2039,1.4832,-2.4561,-1.7685,-0.058,0.832
1781765951061,0.2858,2.7286,0.9642,-1.4746,0.0177,0.8131
1781765951101,2.0609,1.5724,-0.3335,-1.8002,0.3054,0.6005
1781765951141,0.2058,1.0609,-2.4456,-2.0739,-0.0079,0.7001
1781765951181,0.8076,1.8679,0.4257,-1.6695,0.0983,0.5901
1781765951221,0.6803,0.8589,0.9362,-1.7257,-0.2224,0.6628
1781765951261,0.2448,0.0247,-0.5126,-1.6719,0.1161,0.7801
1781765951301,0.227,1.5494,-0.6914,-1.7202,0.2028,0.4881
1781765951341,1.5311,1.7612,-1.2958,-1.7324,0.2663,0.5327
1781765951381,0.0325,0.8105,-0.1877,-1.744,0.4734,0.4081
1781765951422,-1.0533,1.4609,-1.7104,-1.7752,0.5315,0.4093
1781765951461,1.0318,0.0946,-1.1545,-1.7501,0.3482,0.3268
1781765951501,-0.507,0.306,-1.3508,-1.6261,0.3592,0.3024
1781765951541,-0.2894,0.9516,-1.8384,-1.4893,0.3341,0.3622
1781765951581,1.4272,0.1172,-1.5787,-1.5107,0.4227,0.1662
1781765951621,0.2269,0.6202,-0.7837,-1.2883,0.1374,0.1582
1781765951661,-0.6315,-0.0208,-0.732,-1.1417,0.2492,0.1936
1781765951701,0.1033,0.585,-1.1145,-0.9786,0.1717,0.1784
1781765951741,0.3034,1.0821,-0.9815,-0.6359,0.069,0.1515
1781765951781,-0.033,1.1242,-1.8628,-0.2975,-0.0654,0.1179
1781765951821,0.392,0.8345,-1.8317,0.1191,-0.146,0.0428
1781765951861,-0.0807,0.8763,-3.0316,0.5932,-0.1936,0.0067
1781765951901,-0.4394,0.8201,-2.5011,0.9456,-0.1753,-0.0238
1781765951941,-0.3372,0.4787,-1.8343,1.3268,-0.256,-0.0635
1781765951981,0.2283,0.3009,-1.5427,1.5076,-0.3378,-0.1332
1781765952022,0.2738,0.2156,-1.141,1.6976,-0.3702,-0.226
1781765952061,-0.3576,0.3329,-1.1984,1.7593,-0.4093,-0.2071
1781765952101,-0.362,0.2529,-0.8668,1.7666,-0.5528,-0.1772
1781765952141,0.5138,0.4362,-0.2367,1.8149,-0.4801,-0.2932
1781765952182,-0.0033,0.5312,-0.9717,1.7813,-0.5895,-0.5211
1781765952221,0.6281,0.5364,-0.3141,1.7874,-0.4007,-0.7092
1781765952261,0.3166,-0.0658,-0.6487,1.7428,-0.2297,-0.744
1781765952301,0.8474,-0.1445,0.15,1.7599,-0.0898,-0.8558
1781765952341,0.2372,-0.0707,0.6576,1.8424,-0.0397,-0.9872
1781765952381,0.2635,0.3992,0.6608,1.9505,-0.1717,-0.9853
1781765952423,0.3776,0.5411,1.4157,2.1765,-0.2572,-0.8968
1781765952461,0.5729,1.145,0.6938,2.1881,-0.2468,-0.821
1781765952501,0.2953,2.1755,0.874,2.0409,-0.0226,-0.8008
1781765952541,0.3241,3.1665,-0.0723,1.9303,0.0929,-1.0562
1781765952582,0.661,2.7741,-0.5601,1.5211,0.35,-1.0476
1781765952621,-0.3758,0.8739,-0.6375,1.1344,0.077,-0.6946
1781765952661,-0.519,1.3224,1.2709,0.474,0.1998,-0.0165
1781765952701,1.7143,-1.9849,-1.1175,-0.1607,-0.1301,0.3201
1781765952741,1.3247,0.2565,0.7333,-0.2645,0.0367,-0.0959
1781765952781,-0.8325,0.3047,1.5664,0.0409,0.1796,-0.0055
1781765952821,1.1707,-0.4694,-0.2659,0.1002,0.0586,0.0904
1781765952861,0.9113,0.0137,0.1241,-0.0953,-0.1814,-0.0513
1781765952901,-0.7658,-0.1358,0.3015,-0.1668,-0.022,0.0147
1781765952941,-0.8913,-0.3451,-0.7025,-0.4527,-0.0238,0.237
1781765952982,0.236,-0.0341,-0.3847,-0.7037,0.1118,0.3745
1781765953021,0.2476,1.3623,0.4278,-1.0165,-0.099,0.5504
1781765953062,0.9697,1.4506,-2.2628,-1.6066,-0.1881,0.6897
1781765953102,0.7544,1.5734,0.4038,-1.8607,-0.0751,0.7398
1781765953141,0.5626,1.5787,0.7072,-1.8503,0.4966,0.6542
1781765953181,1.443,0.5295,-1.2121,-1.6915,-0.1643,0.6921
1781765953221,-0.1028,-1.0762,0.8338,-1.7923,0.1142,0.7569
1781765953261,1.0033,0.0726,0.6094,-1.8271,-0.0312,0.6878
1781765953301,0.3325,1.7352,-0.4165,-1.6163,-0.2456,0.8748
1781765953341,-0.08,-0.7454,0.9808,-1.5913,0.4099,0.6341
1781765953381,1.7437,0.4172,-0.4683,-1.7666,0.1869,0.3519
1781765953422,-0.5701,2.0878,-0.8394,-1.8118,0.3787,-0.0159
1781765953461,-0.7051,0.0776,-1.0683,-1.9016,0.3787,0.0373
1781765953501,0.3328,0.7012,0.1486,-1.7324,0.7104,0.0666
1781765953541,2.4246,0.9516,-1.981,-1.7165,0.2309,-0.0415
1781765953581,-0.479,1.4501,-1.6777,-1.5375,0.248,-0.069
1781765953622,-0.0376,0.2765,-0.2653,-1.5357,0.4612,0.1448
1781765953661,0.5631,0.5313,-0.8555,-1.4667,0.2682,0.0409
1781765953701,-1.0481,0.4473,-1.4504,-1.3024,0.1161,-0.0122
1781765953741,-2.3334,0.7123,-1.1174,-1.2034,0.0806,-0.0874
1781765953782,-0.7726,0.6019,-0.9671,-1.0837,0.0715,0.0709
1781765953822,0.0226,0.3415,-0.7036,-0.9108,-0.0837,0.0886
1781765953861,-0.1297,0.4925,-1.2674,-0.7691,-0.0079,0.1277
1781765953901,2.9791,1.2404,-1.7671,-0.639,0.0159,0.1448
1781765953941,0.253,0.4104,-1.3819,-0.4032,-0.0226,0.113
1781765953981,-0.3666,0.4188,-1.7168,-0.1429,-0.1515,0.1295
1781765954022,-0.0979,0.1199,-2.3636,0.2211,-0.0641,0.0929
1781765954061,0.492,0.5642,-2.0982,0.5211,-0.1533,0.0458
1781765954101,-0.2257,0.3278,-1.2299,0.8662,-0.1264,0.0012
1781765954142,-0.3106,0.1526,-1.2653,1.223,-0.2144,0.0293
1781765954181,-1.1243,0.1986,-0.4472,1.4606,-0.0959,0.0635
1781765954221,0.5303,0.0098,-0.3638,1.6609,-0.1814,0.0336
1781765954261,-0.451,-0.1523,0.0872,1.7654,-0.4111,0.0159
1781765954302,-0.2078,-0.1326,-0.7298,1.8723,-0.4221,-0.0458
1781765954341,-0.218,-0.3387,0.4581,1.879,-0.4252,0.0128
1781765954382,0.5721,0.0511,0.6635,1.8784,-0.4288,-0.069
1781765954421,0.2968,0.3623,0.236,1.7501,-0.4862,-0.1888
1781765954461,0.4647,0.3763,0.48,1.7636,-0.5748,-0.4588
1781765954501,0.1281,-0.0483,0.5867,1.6591,-0.3781,-0.628
1781765954541,0.419,-0.0605,0.8295,1.6066,-0.0983,-0.5217
1781765954581,0.3162,0.6562,0.8646,1.573,-0.1387,-0.5406
1781765954621,0.7448,0.926,0.8745,1.5522,-0.1356,-0.6768
1781765954661,-0.328,0.2634,0.8595,1.5852,-0.2621,-0.653
1781765954701,-0.0978,0.6283,0.6177,1.5522,-0.1234,-0.7312
1781765954742,1.3645,0.8467,0.8443,1.4734,-0.0641,-0.4563
1781765954781,-1.0732,0.5433,0.4272,1.2291,-0.0898,-0.5638
1781765954821,0.7147,0.5963,0.6104,1.1808,-0.0147,-0.6756
1781765954861,0.0793,-0.0542,0.1227,1.0018,-0.0867,-0.6041
1781765954901,0.0925,-0.1021,0.3705,0.9059,-0.1698,-0.5394
1781765954941,-0.8734,-0.5996,0.5482,0.8503,-0.0733,-0.4924
1781765954981,0.7257,0.334,0.5717,0.8607,-0.0367,-0.2388
1781765955021,0.0083,0.1733,0.6924,0.7984,0.1014,-0.3787
1781765955061,0.2912,0.4957,0.9435,0.5925,0.3457,-0.2309
1781765955101,0.1077,-0.4158,1.0278,0.4404,0.5742,-0.168
1781765955141,0.3273,-0.7917,0.7427,0.2236,0.5455,-0.0324
1781765955181,0.9829,-0.4416,0.2677,0.0257,0.3189,-0.0324
1781765955221,-0.242,-0.01,0.8047,-0.0373,0.4087,0.025
1781765955261,-0.7504,-0.0891,1.1578,0.0177,0.2505,-0.0373
1781765955301,0.3764,-0.1251,0.7326,0.0122,0.4068,0.08
1781765955341,0.7598,-0.6507,-0.3612,-0.0623,0.4288,0.0965
1781765955381,0.2974,-0.3437,0.5053,-0.3231,0.1558,0.168
1781765955421,1.018,0.2861,0.3123,-0.4319,0.0189,0.2456
1781765955461,1.3264,0.8213,-0.0866,-0.4783,-0.1558,0.3616
1781765955501,-0.273,-0.7493,-0.6466,-0.7123,0.1472,0.3195
1781765955541,0.8412,1.0602,1.0025,-1.1295,0.0483,0.3848
1781765955581,2.1583,1.1993,0.3142,-1.2113,0.6487,0.2083
1781765955621,1.5074,0.5061,1.8385,-1.5498,-0.2175,0.2608
1781765955661,1.4674,0.336,1.8302,-1.3445,-0.3067,0.4227
1781765955701,0.206,0.6949,0.4443,-1.7098,-0.8821,0.5828
1781765955741,-0.2115,0.9811,1.7603,-1.6506,-0.7508,0.7782
1781765955781,0.737,1.6373,2.1899,-1.8821,-0.6976,0.7508
1781765955822,-0.9242,-0.1021,0.4834,-1.8613,-0.1539,0.7611
1781765955861,-1.489,-0.3401,-0.6213,-1.8876,0.1203,0.8412
1781765955901,1.3446,1.2756,-1.2311,-1.6017,0.1576,0.7031
1781765955941,-0.8983,-0.7274,-0.8581,-1.6102,0.1637,0.5589
1781765955981,1.0288,0.8698,-1.3906,-1.7043,0.4808,0.3952
1781765956021,1.5627,2.4475,-1.5481,-1.8955,1.1167,-0.0421
1781765956061,-0.629,-0.5571,-0.0592,-1.8857,0.4368,0.0507
1781765956101,-0.2249,1.6437,-0.8314,-1.7727,0.3824,0.0867
1781765956141,-0.3309,0.9984,-2.2027,-1.7727,0.7098,-0.0489
1781765956181,-0.0954,0.4995,-2.07,-1.7483,0.5962,-0.1717
1781765956221,-2.1208,-0.0686,-0.1613,-1.5601,0.711,-0.2291
1781765956261,0.0807,0.383,-0.3801,-1.3958,0.3659,-0.223
1781765956301,0.231,0.4295,-0.3992,-1.179,0.201,-0.2144
1781765956341,-0.5281,0.0413,-1.0782,-0.9291,0.1826,-0.0757
1781765956381,0.2698,0.1548,-1.1139,-0.7446,0.0018,-0.055
1781765956421,0.1988,1.0271,-1.5285,-0.6738,0.1582,-0.2456
1781765956461,-0.5522,0.0894,-1.7327,-0.4197,0.0086,-0.0812
1781765956501,-1.9896,0.3049,-0.5559,-0.215,-0.0922,0.0183
1781765956541,-0.8091,-0.1062,-1.6244,0.1417,-0.2083,0.1436
1781765956581,0.0035,0.1072,-1.2699,0.4319,-0.1417,0.1423
1781765956621,-0.725,-0.0286,-1.1295,0.6695,-0.1093,0.2065
1781765956661,-0.5067,0.1884,-0.9982,0.887,-0.1014,0.1979
1781765956701,0.2254,-0.1019,-0.8111,1.182,-0.1582,0.1429
1781765956741,-0.4971,-0.322,-0.5136,1.2944,-0.2205,0.1912
1781765956781,0.0618,0.2073,-0.26,1.438,-0.182,0.0971
1781765956821,-0.3662,0.0327,0.038,1.7019,-0.3457,0.1539
1781765956861,-0.6205,0.2751,-0.6742,1.8912,-0.3372,0.2388
1781765956901,-1.182,-0.287,-0.4695,1.9914,-0.3958,0.3354
1781765956941,0.0603,0.4967,-0.7196,1.9737,-0.62,0.2755
1781765956981,-0.7576,0.4586,-0.5952,2.0366,-0.5657,0.1613
1781765957021,0.4498,0.7508,-1.2251,1.9988,-0.6237,-0.3195
1781765957061,0.9193,-0.1548,-0.2339,1.9645,-0.1497,-0.7007
1781765957101,0.399,-1.212,0.4244,2.0476,0.0629,-0.6768
1781765957141,1.1483,-0.5935,0.7398,2.011,0.0898,-0.7025
1781765957181,1.4006,0.4019,2.0155,2.1393,0.0794,-0.9407
1781765957221,-0.5681,0.4422,2.3107,2.2168,-0.058,-0.8308
1781765957261,-0.8672,1.1336,1.5884,2.1472,0.1906,-0.7837
1781765957301,-0.2506,1.4841,2.404,1.9395,-0.1491,-0.358
1781765957341,0.2382,1.3408,-0.1366,1.3812,-0.1136,-0.5467
1781765957381,0.4114,1.5075,-0.8098,0.6255,-0.1264,-0.6524
1781765957421,-1.315,0.8588,-1.1991,0.2468,0.2981,-0.5308
1781765957461,-2.3173,-0.5531,0.9355,0.4349,0.3176,-0.0843
1781765957501,1.3761,0.2524,0.2415,0.4441,0.5455,-0.2798
1781765957541,-0.4478,-1.306,1.481,0.6445,0.1759,-0.3622
1781765957581,4.1137,1.6594,2.2178,0.7349,-0.1026,-0.4508
1781765957621,0.7776,-2.928,-0.4894,0.215,-0.4636,-0.3873
1781765957661,0.7219,1.5162,0.8098,0.2022,-0.3885,-0.1765
1781765957701,0.4959,-1.5256,0.4283,0.1582,-0.4472,-0.1772
1781765957741,-0.5413,-0.1319,1.1373,-0.0147,-0.0367,0.1167
1781765957781,1.1762,0.5491,1.4765,0.1289,-0.08,0.0299
1781765957821,1.1736,0.034,0.2951,0.022,-0.058,-0.1179
1781765957861,0.008,-0.5838,-0.3672,-0.1607,-0.0764,0.0415
1781765957901,0.3,-0.0801,0.3792,-0.3403,-0.2474,0.2431
1781765957941,0.1245,-0.3966,0.2538,-0.6158,-0.1588,0.3378
1781765957981,-0.0425,-0.1495,0.5011,-0.9022,-0.1545,0.4722
1781765958021,-0.1646,1.6387,-0.624,-1.3879,-0.4233,0.6756
1781765958061,-0.4043,1.7236,-0.7854,-1.8283,0.1264,0.8167
1781765958101,-0.3246,1.8612,0.1694,-1.9523,0.5376,0.7318
1781765958141,1.1035,1.4361,0.9565,-1.8118,0.4386,0.6335
1781765958181,-1.7148,0.2149,2.571,-1.9963,-0.256,0.9187
1781765958221,1.5547,0.2742,0.8391,-1.6359,-0.3665,0.6164
1781765958261,-0.4892,-0.6308,0.0286,-1.7013,-0.4081,0.7764
1781765958301,0.2991,0.5926,-0.7529,-1.857,0.2388,0.6976
1781765958341,-0.6301,1.0483,-0.9361,-1.7947,0.1662,0.3341
1781765958381,-0.1147,1.8174,-1.214,-1.8509,0.3763,0.2346
1781765958421,-0.4815,-0.3252,0.6911,-1.766,0.248,0.3775
1781765958461,1.2034,1.9307,-1.4576,-1.7709,0.5388,0.1735
1781765958501,-0.772,-0.6517,-2.0132,-1.7501,0.4319,0.1258
1781765958541,-1.1725,0.44,-1.064,-1.6945,0.2059,0.1142
1781765958581,-0.2337,-1.371,0.1489,-1.587,0.1093,0.0226
1781765958622,-0.4254,-0.3253,-1.4373,-1.4245,0.2401,-0.058
1781765958661,-1.4598,-0.3783,-1.7869,-1.3592,0.1955,-0.0678
1781765958701,0.2047,-0.7467,0.4359,-1.1393,0.1552,0.0721
1781765958741,0.0305,0.3126,-0.1181,-0.9817,0.1381,0.0959
1781765958781,-0.1921,0.6678,-1.6082,-0.8882,0.237,-0.0696
1781765958821,-0.1395,0.5268,-0.7459,-0.7477,0.3555,-0.2022
1781765958862,-0.4095,0.504,-0.8678,-0.4533,0.0812,-0.0727
1781765958901,-2.0049,0.4195,-2.0364,-0.2144,-0.0086,0.0837
1781765958941,-0.6313,0.1193,-1.5694,-0.0165,0.0281,0.1045
1781765958981,-0.1189,0.2725,-0.8627,0.2792,-0.0825,0.0617
1781765959021,-0.8853,0.436,-1.4939,0.5424,-0.0055,0.0605
1781765959061,-0.9026,0.2828,-1.1788,0.8558,-0.0092,0.0751
1781765959101,-0.6236,0.484,-0.7944,1.1161,-0.1014,0.0892
1781765959141,-0.6315,0.1794,-0.5436,1.3335,-0.0751,0.0641
1781765959181,-0.145,-0.0755,-0.7336,1.4899,-0.2297,-0.0379
1781765959221,-1.2461,-0.2282,-0.7608,1.6597,-0.2615,-0.0189
1781765959261,-0.4559,-0.2333,-0.4613,1.8161,-0.2505,-0.0165
1781765959302,-0.1346,-0.2075,-0.2615,1.887,-0.4545,-0.0446
1781765959341,0.6613,-0.3739,0.277,1.8692,-0.5718,-0.1509
1781765959381,-0.1074,0.0351,-0.497,1.8992,-0.4673,-0.2859
1781765959421,-0.0048,0.1415,0.3813,1.7648,-0.2523,-0.5999
1781765959461,-0.5563,-0.8014,-0.0671,1.7006,-0.1472,-0.5492
1781765959501,-0.1699,-0.7058,0.1858,1.7068,-0.0061,-0.6524
1781765959542,0.3943,-0.2595,0.9516,1.7184,-0.0446,-0.6194
1781765959581,0.0469,0.1463,1.3026,1.7788,-0.0776,-0.7617
1781765959621,0.5265,-0.3462,1.4447,1.7477,0.0715,-0.6884
1781765959661,0.4953,-0.072,1.5473,1.708,-0.022,-0.708
1781765959701,0.7578,0.8187,1.2514,1.6365,0.0519,-0.6182
1781765959741,0.1023,0.8725,1.5796,1.4514,-0.0971,-0.5852
1781765959781,-0.6528,0.4694,0.8228,1.3732,-0.1564,-0.5131
1781765959821,-0.2287,0.684,1.4345,1.3073,-0.0953,-0.3555
1781765959861,0.6541,1.3494,0.8553,1.1368,-0.0006,-0.4197
1781765959901,0.0142,0.0377,0.107,1.157,0.1765,-0.5877
1781765959941,-0.4937,1.1586,1.1683,0.8931,0.2865,-0.416
1781765959981,-1.4577,-0.5427,-0.4216,0.2303,0.314,0.0006
1781765960021,1.1025,-2.1516,-0.1568,-0.1411,-0.0061,0.0696
1781765960061,0.2641,0.4151,0.5196,-0.0733,0.1167,0.0098
1781765960101,-0.6559,0.609,1.713,0.0586,0.2346,0.1478
1781765960141,1.7458,-0.7813,1.1752,0.0666,-0.0195,-0.0458
1781765960181,0.5867,0.0686,0.4142,-0.0605,-0.2175,-0.0825
1781765960221,-0.9607,-0.155,0.1478,-0.1307,-0.0733,0.1106
1781765960261,-0.0902,-0.4057,0.0848,-0.1991,0.0086,0.0971
1781765960301,-0.1148,0.0293,0.2682,-0.2749,0.0293,0.1106
1781765960341,-0.2502,-0.0951,-0.4277,-0.4588,-0.0788,0.2364
1781765960381,-0.1635,0.4023,0.1459,-0.6139,-0.0287,0.27
1781765960421,0.1549,0.4453,0.2628,-0.7172,-0.0971,0.3207
1781765960461,0.7181,0.962,-0.0081,-1.1594,-0.0354,0.3494
1781765960501,-0.1562,0.2675,-1.5894,-1.6451,0.0409,0.4111
1781765960541,0.3091,1.3574,-0.569,-1.6072,0.0623,0.5785
1781765960581,-0.0928,2.1009,0.7335,-1.7654,0.2663,0.6683
1781765960621,-0.5993,-0.3255,0.7201,-1.5046,0.1625,0.6017
1781765960661,0.9362,0.7508,-0.2872,-1.9774,-0.1063,0.7758
1781765960701,0.7273,1.4297,1.2967,-1.6616,-0.1808,0.7294
1781765960742,-0.4035,1.4426,-0.1089,-1.6817,-0.2236,0.6341
1781765960781,0.7085,-0.0204,0.1248,-1.8888,0.0195,0.5559
1781765960821,-1.5032,-0.5937,0.4585,-1.7471,0.0336,0.5217
1781765960861,1.0424,2.3436,-0.686,-1.7055,0.4441,0.3109
1781765960902,-1.6916,0.4139,-0.2338,-1.5913,0.2786,0.4875
1781765960941,0.7464,0.5458,-0.7044,-1.5962,0.3451,0.2908
1781765960981,-0.8565,0.084,0.298,-1.6188,0.3451,0.1784
1781765961021,0.6847,-0.261,-0.5742,-1.4679,0.347,0.2303
1781765961061,0.3526,0.4199,-1.4977,-1.4429,0.0819,0.0269
1781765961101,-1.0921,0.122,-1.0862,-1.3268,0.3708,0.0006
1781765961141,-0.4785,0.2659,-0.9255,-1.2205,0.394,-0.0922
1781765961181,-0.3846,0.661,0.2408,-1.0977,0.1142,-0.1332
1781765961221,0.2692,0.387,-0.6337,-0.8796,0.193,-0.0134
1781765961261,0.2527,0.4169,-0.5701,-0.8106,0.2657,-0.0898
1781765961301,-0.4512,0.0128,-0.5699,-0.686,0.204,-0.0782
1781765961341,0.2664,0.6235,-0.5188,-0.5235,0.0929,-0.044
1781765961381,-0.131,0.5856,-0.7875,-0.3891,0.033,-0.0122
1781765961421,-0.6995,0.5676,-1.1032,-0.2248,-0.0464,0.011
1781765961461,-0.4357,0.4333,-0.9508,-0.055,-0.1448,0.0831
1781765961501,-0.3236,1.2323,-1.1207,0.1845,-0.1222,0.1216
1781765961541,-0.3925,0.893,-1.5615,0.3806,0.069,0.0177
1781765961581,0.2214,0.5965,-0.5151,0.6439,0.0159,-0.0342
1781765961621,-0.1967,-0.3025,-0.8389,0.9041,-0.0947,-0.0049
1781765961661,-0.2957,-0.3565,-0.5574,1.1277,-0.0916,0.0263
1781765961701,0.1184,-0.5774,-0.5248,1.2339,-0.0874,-0.0079
1781765961741,-0.4324,-0.5016,-0.2297,1.3445,-0.2572,0.0049
1781765961781,-0.043,-0.0644,0.5636,1.4404,-0.1839,0.0079
1781765961821,-0.0668,0.0269,-0.3814,1.507,-0.3445,0.044
1781765961861,0.4188,0.3681,-0.399,1.4349,-0.292,-0.0171
1781765961901,-0.1922,0.1988,0.3623,1.5467,-0.2462,-0.0403
1781765961941,0.2541,0.0666,-0.247,1.4251,-0.3506,-0.0983
1781765961981,0.4491,-0.1919,0.2544,1.3842,-0.3323,-0.2486
1781765962021,-0.6215,0.1518,0.3789,1.3549,-0.339,-0.3635
1781765962061,-0.2634,0.143,0.0914,1.3115,-0.1631,-0.4093
1781765962101,0.2279,-0.3508,0.6531,1.317,-0.1533,-0.4282
1781765962141,0.2281,-0.461,0.478,1.2926,-0.1075,-0.4606
1781765962181,-1.2398,-0.1923,0.4908,1.3262,-0.0525,-0.4203
1781765962221,0.6367,0.5532,0.7118,1.3726,-0.0922,-0.3751
1781765962262,-0.1163,0.2758,0.805,1.4887,-0.0709,-0.5143
1781765962301,0.9211,-0.1564,0.956,1.4655,-0.0452,-0.3531
1781765962341,0.3595,0.1602,1.1578,1.3604,-0.0031,-0.5058
1781765962381,1.0161,0.8089,1.1018,1.281,0.0965,-0.4368
1781765962421,-0.168,0.1912,0.7608,1.2724,0.0971,-0.496
1781765962461,0.2163,0.6995,0.9714,1.2859,0.2535,-0.5559
1781765962501,-0.6353,-0.1972,0.0041,1.1661,0.1649,-0.4472
1781765962541,1.3157,1.0538,0.6402,1.1173,0.2498,-0.4563
1781765962581,0.1283,0.7804,2.1025,0.9963,0.0318,-0.5932
1781765962621,-0.3371,-0.3176,-0.2607,0.6304,0.2101,-0.3671
1781765962661,0.2044,-1.6223,-0.118,-0.0012,-0.2669,0.0586
1781765962701,-0.0531,-0.1483,0.7019,-0.179,-0.1613,0.1203
1781765962741,0.4824,0.2265,1.7247,0.0336,0.1429,0.0128
1781765962781,1.1561,-0.2503,1.0326,0.099,-0.0709,-0.0037
1781765962821,0.3028,-0.2813,0.1467,-0.0263,-0.2211,-0.1124
1781765962861,-1.0485,0.1119,0.29,-0.0379,-0.0495,-0.0397
1781765962901,0.1934,-0.3815,0.2989,-0.0702,-0.055,0.0971
1781765962941,0.461,0.1637,0.0318,-0.0861,-0.1332,-0.0159
1781765962981,-0.3404,0.1461,0.1261,0.0263,-0.1491,-0.1075
1781765963021,-0.3453,-0.096,0.13,0.0745,-0.0128,-0.0495
1781765963062,0.3196,-0.0593,-0.0617,0.0147,-0.033,-0.0293
1781765963101,0.1166,-0.0781,0.2659,-0.0379,-0.0434,-0.044
1781765963142,-0.0929,-0.0721,0.2042,-0.11,-0.0061,0.0342
1781765963181,0.342,-0.1648,-0.2059,-0.2944,-0.0611,0.1326
1781765963221,0.586,-0.0009,0.2755,-0.4441,-0.0977,0.1686
1781765963261,-0.0201,0.8024,0.2582,-0.6139,-0.0031,0.2596
1781765963301,-0.2432,0.4783,-0.0875,-1.1234,-0.1014,0.4404
1781765963341,0.6377,1.4805,-1.6389,-1.5082,0.223,0.6261
1781765963381,2.2799,1.5679,0.974,-1.2724,0.2083,0.617
1781765963421,-1.0638,0.825,1.7894,-1.9908,0.226,0.5394
1781765963461,1.7667,0.204,-0.1937,-1.744,-0.0617,0.4044
1781765963501,-0.0006,0.6015,3.3478,-1.8473,0.0684,0.4917
1781765963542,1.005,0.9483,0.7541,-1.7171,-0.6133,0.5724
1781765963581,-0.6239,-0.7469,1.12,-1.6719,0.3396,0.3549
1781765963621,-0.9094,-0.3505,-0.8443,-1.708,-0.2853,0.4661
1781765963661,-0.6894,0.9762,-0.7089,-1.5791,0.1527,0.2755
1781765963701,-0.6192,-0.0234,1.1678,-1.6866,0.3641,0.1833
1781765963741,-0.3911,0.8792,-0.6746,-1.5724,0.1332,0.4026
1781765963781,-1.1479,0.8777,-1.1587,-1.5632,0.3714,0.2608
1781765963821,0.6074,-0.1458,0.1884,-1.5479,0.3457,0.3409
1781765963861,0.7936,0.1497,-0.5606,-1.5375,0.3109,0.1839
1781765963901,0.4369,-0.2342,-1.2355,-1.493,-0.0018,0.1833
1781765963941,0.9703,-0.4351,-0.3684,-1.5699,0.3861,-0.1826
1781765963981,-2.2648,-0.222,-2.2615,-1.496,0.306,-0.1735
1781765964021,-0.0347,0.6332,0.0437,-1.2107,0.3457,-0.1387
1781765964061,-0.3048,-0.0006,-1.825,-0.9322,0.2676,-0.0605
1781765964101,0.0377,0.195,-1.0664,-0.7874,0.2169,-0.0128
1781765964141,0.4471,0.3193,-1.075,-0.5864,0.1319,-0.077
1781765964181,-0.1395,0.6883,-0.41,-0.4221,0.1417,-0.0764
1781765964221,-0.2285,0.6754,-0.8517,-0.1393,-0.1118,0.1069
1781765964261,-0.0548,0.3256,-1.6804,0.1203,-0.1069,0.1564
1781765964301,0.1118,0.1269,-1.6874,0.372,-0.0898,0.0831
1781765964341,-0.2402,0.5729,-0.9728,0.6622,-0.0971,0.0825
1781765964381,-0.3912,0.3413,-1.483,0.9328,-0.0043,0.1252
1781765964421,-0.2101,0.3739,-0.6568,1.1991,0.0421,0.1338
1781765964461,0.5669,0.0132,-0.1761,1.3341,-0.0287,0.0782
1781765964501,-0.0869,-0.0789,-0.5868,1.4691,-0.2419,0.0892
1781765964541,-0.5907,-0.4037,-0.6974,1.5449,-0.248,0.0941
1781765964581,-0.2027,-0.1229,-0.3196,1.686,-0.2242,0.0965
1781765964621,0.0845,-0.1414,-0.7037,1.6536,-0.27,0.0037
1781765964661,0.2946,0.0153,-0.561,1.5791,-0.3482,-0.0305
1781765964701,0.3607,0.1759,0.0512,1.6225,-0.2963,-0.1655
1781765964742,0.3005,0.0449,-0.314,1.5211,-0.3091,-0.3213
1781765964781,-0.2245,-0.472,0.2081,1.471,-0.1796,-0.438
1781765964821,0.3769,-0.2166,0.6864,1.4355,-0.0782,-0.4502
1781765964861,0.1306,-0.5076,0.5246,1.4203,-0.0501,-0.5296
1781765964901,0.4039,-1.1108,1.466,1.4826,-0.1026,-0.6035
1781765964941,0.4638,-0.3599,0.7519,1.5901,-0.0977,-0.496
1781765964981,-0.0572,0.2073,1.0425,1.6176,-0.0012,-0.6811
1781765965021,0.2914,-0.2208,1.9847,1.6402,0.1851,-0.6793
1781765965061,0.2046,0.1933,1.6151,1.6023,0.0776,-0.5919
1781765965101,0.0097,0.6922,1.4405,1.598,-0.0959,-0.4062
1781765965141,0.2041,0.8474,1.3506,1.4991,-0.0666,-0.3763
1781765965181,-0.1116,0.8313,0.6152,1.3366,-0.0867,-0.3445
1781765965221,0.1853,0.7807,0.5239,1.1942,0.0354,-0.3525
1781765965261,-0.0301,0.2629,0.6266,1.0678,-0.0073,-0.4618
1781765965301,0.2337,0.7435,0.2181,0.8332,0.1478,-0.325
1781765965341,-0.8833,0.138,-0.3889,0.2755,0.2553,-0.0727
1781765965381,0.2908,-1.9208,-0.3198,-0.1588,-0.022,0.0965
1781765965421,0.6025,-0.0174,0.6357,-0.1637,0.0055,0.0489
1781765965461,0.2713,0.548,1.0082,0.0226,0.1234,-0.0122
1781765965501,-0.2938,-0.1969,0.7129,0.0672,-0.0287,0.0428
1781765965541,0.9584,-0.3,0.3794,-0.0018,-0.0293,-0.0874
1781765965581,-0.3698,0.2567,0.2233,0.0257,0.0269,-0.0941
1781765965621,-0.2111,-0.2419,0.0289,-0.0177,0.0208,0.0318
1781765965662,0.0108,-0.385,-0.1648,-0.1875,0.0098,0.0464
1781765965701,0.2544,0.0636,0.1087,-0.3036,-0.0067,0.0519
1781765965741,0.0407,-0.0672,0.0265,-0.4734,-0.2547,0.1552
1781765965781,-0.019,0.0325,-0.0715,-0.5718,-0.2004,0.1973
1781765965821,-0.4921,0.5561,-0.2743,-0.854,-0.2731,0.3329
1781765965861,-0.0612,0.0974,-1.0726,-1.328,-0.1326,0.3836
1781765965901,0.2318,1.0426,0.5105,-1.2761,-0.1436,0.3274
1781765965941,-0.3765,1.8308,-0.7291,-1.5614,0.2107,0.4166
1781765965981,0.028,-0.2306,1.2036,-1.5528,0.1545,0.4508
1781765966021,-0.3495,1.209,1.5038,-1.4813,0.2767,0.6432
1781765966061,1.7244,1.3384,1.8713,-1.5211,-0.0721,0.6115
1781765966102,-0.6079,-0.922,0.7125,-1.4416,-0.0849,0.6359
1781765966141,0.7492,0.4288,0.9447,-1.4899,-0.2865,0.6536
1781765966181,1.0217,-0.6497,1.3216,-1.394,-0.0043,0.4013
1781765966221,-0.6198,0.6121,0.0716,-1.474,-0.2315,0.4239
1781765966262,-0.8874,-0.2768,-0.0743,-1.3323,0.1985,0.3586
1781765966302,0.1481,0.2751,-0.3113,-1.5131,0.0959,0.4074
1781765966341,1.6201,1.0821,-0.9247,-1.3628,0.08,0.2138
1781765966381,-0.8991,1.087,-0.6235,-1.5168,0.4728,0.0745
1781765966421,0.6107,0.2288,-0.4744,-1.438,0.4154,0.1973
1781765966461,-0.3155,1.135,-0.2334,-1.2987,0.0941,0.113
1781765966501,-0.955,-0.342,-0.2462,-1.2743,0.0452,0.1955
1781765966541,-0.0382,0.5521,-0.2759,-1.3024,0.234,-0.0012
1781765966582,-0.7572,0.2343,-1.0812,-1.2101,0.245,-0.047
1781765966621,-0.5325,0.1711,-0.4275,-1.1246,0.0965,0.0024
1781765966661,-0.0099,0.3743,-0.3598,-1.0348,0.0476,0.0049
1781765966701,-0.5427,0.1204,-0.6079,-0.9475,0.1307,0.0122
1781765966741,0.0704,0.3717,-0.6473,-0.7996,0.1778,-0.0757
1781765966781,-0.044,0.151,-1.1725,-0.7159,0.0183,-0.1326
1781765966821,-0.4628,0.3886,-0.4074,-0.5516,0.0861,-0.1264
1781765966861,-0.0774,0.2777,-0.9675,-0.3549,0.0159,-0.0837
1781765966901,-0.8854,0.4358,-0.9149,-0.1826,0.0275,0.025
1781765966941,-0.586,0.2765,-1.3344,-0.0513,0.0037,0.044
1781765966981,0.1272,-0.0615,-1.7056,0.1381,0.1057,-0.0379
1781765967021,-0.0175,0.8879,-1.3249,0.3464,0.113,-0.0929
1781765967061,-0.6939,0.8288,-1.4264,0.6121,0.1319,-0.0678
1781765967101,-0.5693,0.7479,-0.9024,0.89,-0.0385,0.0092
1781765967141,-0.7297,0.7206,-0.577,1.1338,0.0006,0.0415
1781765967181,-0.2654,0.4782,-0.9286,1.3066,0.0171,-0.0031
1781765967221,-0.0929,0.2252,-0.1834,1.5021,-0.1045,-0.022
1781765967261,-0.4238,0.315,-0.2497,1.5699,-0.0495,-0.0073
1781765967301,-0.4864,0.0288,-0.7081,1.6573,-0.0134,0.0318
1781765967341,-0.2898,0.12,0.1596,1.6573,-0.1277,-0.0367
1781765967381,0.3071,0.508,0.9948,1.7257,-0.3115,-0.0507
1781765967421,0.1293,0.1727,0.6125,1.6829,-0.2834,-0.0874
1781765967461,-0.2957,0.1004,-0.0881,1.6396,-0.1814,-0.2376
1781765967501,-0.4182,-0.0342,-0.0652,1.5345,0.0012,-0.1619
1781765967541,0.4797,-0.0916,0.0936,1.5027,-0.0654,-0.2089
1781765967581,0.6271,-0.3586,1.0709,1.4471,-0.0953,-0.4502
1781765967621,-0.0501,-1.3946,1.3569,1.4685,-0.1674,-0.4765
1781765967661,-0.8803,-0.9322,0.8056,1.5076,-0.0831,-0.4319
1781765967701,0.2816,0.4282,0.4703,1.6005,0.1362,-0.4533
1781765967741,-0.327,-0.4011,1.8485,1.606,-0.0568,-0.4948
1781765967781,0.6387,0.6006,1.1965,1.5339,-0.179,-0.5363
1781765967821,0.2208,1.0525,-0.0431,1.5485,-0.0764,-0.4753
1781765967861,-0.7503,-0.1008,1.2919,1.4985,0.1173,-0.1979
1781765967901,-0.1583,1.1309,0.4224,1.1808,0.1845,-0.1405
1781765967941,1.5849,0.8956,-0.014,0.7825,0.3726,-0.3262
1781765967981,2.042,-0.3469,-0.3318,0.4588,0.1142,-0.3024
1781765968021,0.3499,0.3644,0.5051,0.427,-0.1411,-0.2608
1781765968061,-0.8154,0.044,1.4456,0.3598,-0.1973,-0.0159
1781765968101,-0.0061,-0.184,-0.1774,0.3201,-0.0116,0.0232
1781765968141,0.4763,-0.3312,0.4178,0.1472,-0.0446,-0.0953
1781765968181,0.0722,0.2041,0.6816,0.0971,-0.0012,-0.0739
1781765968221,0.4069,-0.2455,0.4276,0.0764,-0.1008,-0.0391
1781765968261,0.5846,-0.1636,0.0569,0.0519,-0.0702,-0.0819
1781765968301,-0.1561,-0.0626,0.57,0.0067,-0.0983,-0.0134
1781765968341,0.2772,0.0987,0.0723,-0.0226,-0.1588,-0.0153
1781765968381,-0.145,-0.1488,-0.1742,-0.0104,-0.0513,-0.0599
1781765968421,-0.5507,-0.1502,-0.1811,-0.0764,-0.0067,0.036
1781765968461,0.231,-0.2692,0.25,-0.2175,-0.0635,0.0892
1781765968501,0.2547,0.131,-0.0314,-0.3012,-0.0116,0.047
1781765968541,-0.0886,0.0171,-0.4557,-0.4594,0.0568,0.1527
1781765968581,0.7315,0.1768,1.0513,-0.5724,0.4374,0.1857
1781765968621,0.22,0.3398,-0.6143,-1.0183,0.0965,0.3262
1781765968661,-0.3844,0.1595,-2.069,-1.5748,-0.215,0.5034
1781765968701,0.004,2.3451,0.6267,-1.6041,0.2077,0.4032
1781765968741,-2.4187,0.2068,-0.4082,-1.3525,0.1417,0.5614
1781765968781,-0.536,1.3495,1.8591,-1.5516,0.3549,0.7007
1781765968821,1.3577,0.533,-1.0441,-1.6151,-0.1124,0.4783
1781765968861,1.41,1.1678,1.3909,-1.551,-0.2236,0.405
1781765968901,-0.308,-0.0779,-0.321,-1.441,-0.3305,0.3629
1781765968941,-0.8689,0.1021,0.0028,-1.3415,-0.069,0.3329
1781765968981,-1.4049,-0.3914,0.5218,-1.314,0.0562,0.4026
1781765969021,0.7503,-0.0238,-0.3072,-1.3494,0.2523,0.1735
1781765969061,0.366,0.9605,-0.3859,-1.4539,-0.0128,0.0421
1781765969101,-0.9102,0.7906,-0.3656,-1.4197,0.3769,-0.1582
1781765969141,-1.3014,0.9088,0.7252,-1.4679,0.4203,-0.102
1781765969181,0.7495,1.3183,-0.1204,-1.6787,0.3427,-0.1735
1781765969221,0.7006,-0.0677,-0.0615,-1.5632,0.2498,-0.2529
1781765969261,-0.9412,0.6015,-0.5819,-1.4423,0.0941,-0.2382
1781765969301,-1.1173,0.821,0.2479,-1.2999,0.1961,-0.0672
1781765969341,-0.3323,0.2419,-0.5379,-1.0666,-0.0782,0.1863
1781765969381,0.2218,0.0172,-1.4326,-0.9475,-0.2663,0.314
1781765969421,0.3756,-0.6178,-0.6935,-1.0287,-0.2443,0.3592
1781765969461,0.6788,-0.749,0.4077,-0.9768,-0.1429,0.3433
1781765969501,1.4125,0.5053,-0.5049,-1.0305,-0.0617,0.1655
1781765969541,-0.3578,0.6805,-0.413,-0.945,0.1051,0.0825
1781765969581,-0.7481,0.6256,-0.8129,-0.807,-0.0061,0.1313
1781765969621,0.4634,0.4061,1.1006,-0.6139,-0.0886,0.1826
1781765969661,0.1121,0.5778,-1.0402,-0.5107,-0.0861,0.1264
1781765969701,0.3573,0.3119,-0.9724,-0.3641,-0.0104,0.0073
1781765969742,0.2337,0.0859,-0.7814,-0.2975,0.0867,-0.0434
1781765969781,-0.1299,0.0607,-0.8017,-0.182,-0.0373,-0.0367
1781765969821,-0.4741,0.3414,-0.721,-0.1466,0.0782,-0.0385
1781765969861,-0.2242,0.4838,-0.2902,-0.025,0.0501,-0.055
1781765969901,-0.1533,0.5112,-0.2153,0.0177,-0.1222,-0.0104
1781765969941,0.0566,0.5249,-0.8999,0.1967,-0.0428,0.011
1781765969981,-0.0486,0.7613,-0.474,0.4129,-0.033,-0.0067
1781765970021,-0.1239,0.9134,-0.7583,0.5809,0.0452,-0.0483
1781765970061,-0.3547,1.0394,-1.5683,0.7184,0.1423,-0.1423
1781765970101,-0.0982,1.2174,-0.3938,1.0562,0.0965,-0.223
1781765970141,0.3582,0.4183,-0.2503,1.2627,-0.1631,-0.1845
1781765970181,-0.9405,0.0028,-0.6291,1.4704,-0.1759,-0.0641
1781765970221,-0.7287,-0.1375,-0.3464,1.6139,-0.2957,0.0519
1781765970261,-0.1457,-0.0798,-0.3979,1.7465,-0.3262,0.1491
1781765970301,0.0577,0.0784,-0.9143,1.6591,-0.2804,0.0721
1781765970341,0.5886,0.4228,-0.0047,1.7342,-0.1405,-0.0385
1781765970381,0.4734,-0.3187,-0.4264,1.5846,-0.1063,-0.1552
1781765970422,-0.7673,0.1788,0.8519,1.6725,-0.2107,-0.0819
1781765970461,-0.4059,0.3212,0.7092,1.6463,-0.336,-0.2474
1781765970501,1.1933,-0.1084,0.6512,1.5406,-0.2462,-0.5461
1781765970541,0.1541,-0.7124,0.8254,1.4618,-0.0305,-0.5638
1781765970581,0.019,-0.335,0.4099,1.4288,0.1197,-0.4875
1781765970621,0.4262,-0.2417,1.3813,1.4838,0.0287,-0.5315
1781765970661,-0.0237,-0.0179,0.9243,1.5119,-0.0556,-0.3965
1781765970701,-0.1723,-0.2205,1.4239,1.5339,0.0983,-0.4624
1781765970741,-1.0242,-0.5912,1.0168,1.5583,0.0409,-0.449
1781765970781,0.6156,0.2633,1.3481,1.3867,0.069,-0.6408
1781765970821,0.8155,0.1872,0.4111,1.314,-0.0153,-0.5809
1781765970861,-0.046,-0.1464,1.5298,1.3775,-0.1674,-0.4942
1781765970901,-0.2508,0.4815,0.6544,1.2822,-0.0385,-0.3085
1781765970941,-0.2606,0.5736,0.2963,1.0849,0.16,-0.3543
1781765970981,0.4733,0.2721,0.6031,0.978,0.0788,-0.2957
1781765971021,0.8716,0.1657,0.8994,0.931,-0.0226,-0.259
1781765971061,0.9077,0.276,0.0219,0.5864,0.0232,-0.1423
1781765971101,0.0327,-0.7266,-1.2334,0.1063,0.0079,-0.0348
1781765971141,0.2758,-0.7462,-0.0172,-0.1814,-0.1411,0.0067
1781765971181,0.0173,0.6302,1.4646,0.0226,0.1564,-0.0165
1781765971221,0.0074,-0.3719,0.7613,0.1295,0.2749,-0.0183
1781765971261,1.1761,0.0252,0.2772,0.036,0.0,-0.0397
1781765971301,0.8381,-0.1495,0.6419,-0.0458,-0.0892,-0.0531
1781765971341,-0.094,-0.2269,0.45,-0.0501,-0.0544,-0.0116
1781765971382,-0.0481,0.1983,0.325,-0.1264,0.0244,0.0648
1781765971421,0.3356,-0.2365,-0.0844,-0.3109,-0.0214,0.1252
1781765971461,0.0943,-0.0669,0.0459,-0.4252,-0.0941,0.2443
1781765971501,0.0452,0.2441,0.0854,-0.5962,0.0476,0.3806
1781765971541,-0.0341,-0.0429,-0.9042,-1.1405,0.0043,0.5522
1781765971581,0.6643,-0.4224,-0.1947,-1.4917,-0.124,0.6316
1781765971621,0.7862,1.2399,-0.7347,-1.989,-0.2144,0.5932
1781765971661,-0.0512,1.6838,2.4299,-1.7526,-0.0672,0.7373
1781765971701,1.1392,1.5776,1.4101,-1.7801,0.1955,0.4734
1781765971742,0.8331,0.6355,1.6297,-1.5583,-0.226,0.5944
1781765971781,-0.0127,0.7432,0.9931,-1.8613,-0.2456,0.5614
1781765971821,0.7223,-0.5305,1.7437,-1.4642,-0.2211,0.4313
1781765971861,-0.2746,1.5504,-0.4943,-1.6689,0.2297,0.4252
1781765971901,-0.2681,-1.6535,-0.5796,-1.7135,0.4704,0.234
1781765971942,-0.1926,1.0602,0.3364,-1.584,0.4258,0.0024
1781765971981,-1.6734,0.5336,-1.7253,-1.6408,0.4056,0.4337
1781765972021,0.5122,0.3919,-0.3343,-1.5944,0.3586,0.19
1781765972061,-1.2477,0.0669,-0.2341,-1.5015,0.2199,0.1765
1781765972102,0.0139,-0.4435,0.3351,-1.5272,0.3317,0.1142
1781765972141,1.1524,-0.4234,-0.3454,-1.4728,0.2731,-0.0421
1781765972181,-0.0571,-0.6918,-0.1998,-1.3103,-0.0837,-0.0544
1781765972221,-0.4707,-0.1984,-0.8955,-1.2456,0.0336,-0.0562
1781765972261,-0.5925,-0.0014,-1.5441,-1.204,0.3354,-0.1545
1781765972301,-0.4241,0.452,0.0273,-1.0415,0.3103,-0.146
1781765972341,0.0606,0.9202,-0.2486,-0.843,0.1057,-0.1051
1781765972381,-0.2656,0.2381,0.15,-0.7911,-0.0061,-0.0409
1781765972421,-0.4128,1.0261,-0.6873,-0.6738,0.1753,-0.0086
1781765972461,-0.104,0.7325,-0.6584,-0.5864,0.0916,0.0018
1781765972501,0.3994,0.7282,-0.2485,-0.4789,0.0342,-0.0098
1781765972541,0.1334,0.6675,-0.1313,-0.3653,0.0715,0.0122
1781765972581,0.4372,0.2325,-0.7422,-0.2969,-0.0006,0.0208
1781765972621,-0.2048,0.4855,-0.6252,-0.1607,-0.0006,0.0672
1781765972661,0.5331,0.0805,-1.1103,-0.0312,-0.0684,0.0971
1781765972701,-0.2539,0.4333,-1.1678,0.2187,-0.1246,0.1637
1781765972741,0.1083,0.9899,-1.7604,0.5938,0.0018,0.1649
1781765972781,-0.2969,0.8786,-1.2666,0.9065,-0.0971,0.1368
1781765972821,0.0905,-0.3269,-0.7567,1.2254,-0.2987,0.1588
1781765972861,-0.4871,-0.4509,-1.4698,1.3329,-0.2107,0.1191
1781765972901,-0.4435,-0.4645,-0.1978,1.5852,-0.2095,0.1448
1781765972941,-0.0337,-0.3602,-0.5132,1.5754,-0.1936,0.1381
1781765972981,0.1423,-0.3299,0.3866,1.6897,-0.2651,0.1081
1781765973021,0.4079,-0.4399,-0.5437,1.7178,-0.295,0.044
1781765973061,-0.3492,-0.1891,-0.3902,1.6848,-0.2431,-0.0446
1781765973101,-0.003,-0.3825,0.945,1.7184,-0.2633,-0.1014
1781765973141,0.5703,-0.7566,0.1332,1.6023,-0.4166,-0.2431
1781765973181,-0.1677,-0.4643,0.5633,1.5272,-0.1881,-0.5082
1781765973221,0.2718,-0.3961,0.174,1.3812,-0.0684,-0.427
1781765973261,-0.2766,-0.4381,0.7901,1.4166,-0.1258,-0.3787
1781765973301,-0.161,-0.589,0.6004,1.4478,-0.0507,-0.3726
1781765973341,0.1585,-0.5551,0.7077,1.4471,0.1692,-0.4875
1781765973381,0.2398,-0.5528,1.0789,1.4514,0.0257,-0.4142
1781765973421,0.2079,0.4782,1.2605,1.5614,-0.0128,-0.3958
1781765973461,0.2724,0.1407,0.7699,1.3848,0.077,-0.5718
1781765973502,-0.4106,0.0888,0.6893,1.3592,0.0654,-0.383
1781765973541,0.3355,0.7764,1.5851,1.3182,-0.0153,-0.5095
1781765973581,-0.0414,0.699,0.3923,1.2694,-0.0202,-0.4013
1781765973621,0.0283,0.5449,0.4733,1.2572,-0.1332,-0.3592
1781765973661,-0.1442,-0.009,0.5449,1.2401,0.0293,-0.2712
1781765973701,0.2889,0.3687,1.0451,1.0904,0.0605,-0.3091
1781765973742,1.0273,1.1483,0.9727,0.8772,0.204,-0.4148
1781765973781,0.0172,0.7558,-0.0899,0.4618,0.1784,-0.215
1781765973821,-0.6618,-1.0662,-0.6184,-0.0825,0.0061,0.1399
1781765973861,1.1984,-0.7603,0.4961,-0.2266,-0.036,0.0678
1781765973901,0.2186,0.7431,1.0117,-0.0214,0.2022,-0.0452
1781765973941,-0.3403,-0.4532,0.8702,0.1008,0.121,0.036
1781765973981,1.136,0.0086,0.4579,0.0086,-0.0208,-0.0476
1781765974021,0.3918,-0.1638,-0.0012,-0.0605,-0.1216,-0.1045
1781765974061,-1.0109,-0.0384,0.0264,-0.1484,-0.011,0.0861
1781765974101,0.0759,-0.3528,-0.0479,-0.3317,-0.1851,0.157
1781765974141,0.4779,0.0157,0.1944,-0.507,-0.3231,0.1472
1781765974181,-0.1858,0.3564,0.4528,-0.6652,-0.2841,0.2669
1781765974221,-0.3029,0.916,-0.8413,-1.2236,-0.4142,0.4142
1781765974261,-0.0806,0.5698,-1.9556,-1.9261,0.1087,0.5608
1781765974301,-1.3615,1.7969,1.3732,-1.6084,-0.3176,0.7935
1781765974341,2.5466,2.0591,0.8407,-1.6353,0.5437,0.4019
1781765974381,-2.7497,-0.2853,1.1643,-1.8308,-0.0434,0.7129
1781765974421,0.0774,0.5586,0.6053,-1.5528,0.1497,0.766
1781765974461,0.4209,0.4419,1.3647,-1.6707,0.4307,0.4808
1781765974502,0.5032,0.6365,0.6563,-1.3848,-0.1613,0.6225
1781765974541,-0.452,-0.9232,0.5026,-1.5009,-0.1417,0.6567
1781765974581,0.2659,0.2519,0.197,-1.6041,-0.0086,0.3256
1781765974621,-0.2567,-0.0873,0.1789,-1.6005,0.2828,0.1442
1781765974661,-1.1886,0.7566,-1.4404,-1.664,0.3665,0.1246
1781765974701,0.9749,-0.2321,0.2548,-1.5449,0.4013,0.1191
1781765974741,-1.5873,1.0047,-1.3307,-1.551,0.1008,0.033
1781765974781,0.2836,0.2926,-0.8727,-1.4563,0.3842,-0.0825
1781765974821,-0.6526,-0.1456,-0.4154,-1.3335,0.1552,-0.0024
1781765974861,0.4203,0.6099,-0.4157,-1.2303,0.1264,-0.0226
1781765974901,-0.3268,-0.0911,-1.0429,-1.2168,0.2334,-0.0397
1781765974941,-0.6549,-0.0699,0.1075,-1.1637,0.19,-0.0702
1781765974981,0.2134,0.2354,-0.5956,-1.047,0.2169,-0.0373
1781765975021,0.3003,0.0244,-0.452,-0.9389,0.0941,-0.0458
1781765975061,0.8559,0.6444,-1.1404,-0.8735,0.1686,-0.077
1781765975101,0.3183,0.218,0.0532,-0.7526,0.1613,-0.1319
1781765975141,-0.3416,0.2709,-0.5921,-0.6677,0.234,-0.1216
1781765975181,-0.0373,0.4929,-0.4681,-0.5235,0.0696,-0.1246
1781765975221,-0.9189,0.4472,-0.7051,-0.4203,0.0421,-0.0562
1781765975261,-0.0216,0.4858,-0.4526,-0.339,0.0348,-0.0354
1781765975301,-0.572,0.637,-0.1949,-0.1772,-0.0892,0.0232
1781765975341,-0.5185,0.2388,-1.5633,-0.022,-0.0031,0.0874
1781765975381,0.3211,0.6372,-1.197,0.2028,-0.055,0.0593
1781765975421,0.0894,1.0221,-0.8081,0.5797,-0.1576,0.0287
1781765975461,-0.5543,1.1719,-1.1314,0.8961,-0.1833,0.0147
1781765975501,-0.6322,0.7472,-0.9931,1.2889,-0.1863,0.1228
1781765975541,-0.5523,-0.1044,-1.0618,1.4954,-0.2883,0.204
1781765975581,-0.4082,-0.4049,-0.5571,1.6243,-0.1594,0.1295
1781765975621,0.0044,-0.5195,-1.193,1.6102,-0.2492,0.0623
1781765975661,-0.1183,-0.3873,-0.3525,1.686,-0.2957,0.0397
1781765975701,-0.3877,0.0032,-0.1832,1.6756,-0.3231,0.0678
1781765975741,0.0283,0.182,-0.2356,1.6628,-0.328,-0.0348
1781765975781,-0.4502,0.0243,-0.0461,1.6677,-0.3109,-0.1662
1781765975821,0.3417,-0.1096,-0.205,1.5742,-0.0776,-0.3671
1781765975861,-0.1942,-0.5082,0.4174,1.4893,0.0318,-0.3616
1781765975901,0.737,-0.3863,0.4978,1.4319,0.1417,-0.4068
1781765975941,0.0317,-0.1414,0.486,1.4471,0.0556,-0.3622
1781765975981,0.5543,-0.2762,0.7351,1.4581,-0.0702,-0.4581
1781765976021,0.0095,-0.1247,0.8245,1.4545,-0.1093,-0.4484
1781765976061,-0.7779,0.3519,0.6708,1.4734,-0.0367,-0.3366
1781765976101,-0.1796,-0.1286,1.0388,1.6524,-0.1558,-0.3537
1781765976141,1.4293,0.0485,1.3372,1.4917,-0.0611,-0.4087
1781765976182,0.7174,0.4715,1.5313,1.4429,0.0605,-0.4997
1781765976221,0.747,0.4652,0.5737,1.3751,0.0354,-0.5858
1781765976261,0.0932,0.5871,1.3505,1.3323,0.2089,-0.4551
1781765976301,0.3215,0.6102,0.6123,1.2999,0.0092,-0.3885
1781765976341,-0.0894,0.01,0.1477,1.273,0.2749,-0.4148
1781765976381,0.7837,1.3278,0.2277,0.9187,0.2407,-0.3965
1781765976421,0.2142,0.5942,-0.2745,0.3574,0.1032,-0.1839
1781765976461,-0.1801,-1.9143,-0.4922,-0.1081,-0.1216,0.1093
1781765976501,0.1982,-0.2683,0.4953,-0.1717,-0.011,0.1093
1781765976541,0.6598,0.5545,0.8769,0.0354,0.2126,-0.0122
1781765976581,0.246,-0.259,0.9042,0.0745,-0.0501,0.0354
1781765976621,1.3151,-0.241,0.3629,-0.0305,-0.193,-0.0483
1781765976661,-0.2758,-0.0352,0.3015,-0.0977,-0.0556,-0.0312
1781765976701,-0.6176,-0.1668,0.2497,-0.1515,-0.0929,0.1087
1781765976741,0.101,-0.0174,0.075,-0.306,-0.1643,0.1826
1781765976781,0.638,-0.0479,0.1401,-0.4478,-0.2969,0.1973
1781765976821,0.2339,0.2258,-0.0243,-0.6249,-0.2938,0.3012
1781765976861,-0.1419,0.4021,0.3666,-0.9798,-0.259,0.4252
1781765976901,-0.502,0.4717,-1.4661,-1.2413,0.562,0.8088
1781765976941,-0.2705,1.2321,1.2758,-1.5058,0.5131,0.6518
1781765976981,-1.8173,1.2158,0.9707,-1.3079,-0.328,0.7269
1781765977021,2.5909,0.593,-0.5814,-2.0488,0.1888,0.3861
1781765977061,0.0572,1.5648,-1.5601,-1.8912,-0.4386,0.2553
1781765977101,-0.5729,1.098,0.2147,-1.6029,0.1466,0.3806
1781765977141,-1.5263,-0.1126,-1.0038,-1.6011,0.0709,0.6121
1781765977181,-0.0824,0.2808,-0.0017,-1.4899,0.4795,0.3213
1781765977221,0.3523,-0.106,0.6865,-1.5687,0.1851,0.3818
1781765977261,-0.5476,0.4726,0.1173,-1.5601,0.0855,0.3519
1781765977302,-0.612,0.6421,0.1768,-1.5626,0.1032,0.2682
1781765977341,0.2485,0.5611,-0.1674,-1.5443,0.3842,0.1619
1781765977382,-0.9591,-0.0454,-0.455,-1.504,0.2419,0.0489
1781765977421,0.5228,0.4765,-0.6625,-1.4404,0.1466,0.0764
1781765977461,0.6454,-0.3535,-0.2944,-1.4526,0.1655,-0.0599
1781765977501,-0.3994,-0.1137,-0.2357,-1.3665,0.1588,-0.1582
1781765977541,-0.0461,0.0501,-1.2982,-1.3463,0.3115,-0.1527
1781765977581,-0.1588,-0.5373,-0.2754,-1.2669,0.1509,-0.1619
1781765977621,-0.1056,0.1845,-0.8543,-1.1564,-0.1338,-0.1607
1781765977661,0.0403,0.4194,-0.9044,-1.0672,-0.0391,-0.2053
1781765977702,-0.0357,0.292,-0.0811,-1.0012,0.1118,-0.1826
1781765977741,-0.2357,0.2474,-0.3256,-0.9517,0.171,-0.1161
1781765977781,-0.1983,0.5111,-0.4886,-0.8894,0.0977,-0.091
1781765977821,-0.2838,1.0012,-0.3046,-0.7715,0.1142,-0.091
1781765977861,-0.226,0.8346,-0.5861,-0.639,0.0904,-0.0397
1781765977901,-0.3251,0.9944,-0.5262,-0.4496,0.0177,-0.0061
1781765977941,0.3208,0.8171,-0.7858,-0.2065,-0.1863,0.0751
1781765977981,0.2097,0.9292,-1.4458,0.058,-0.1307,0.0776
1781765978021,-0.4906,1.0285,-1.2631,0.416,0.0177,0.0354
1781765978061,0.3887,0.7238,-1.7084,0.7031,-0.0092,-0.0128
1781765978101,-0.5267,1.0047,-1.0624,1.0629,-0.0898,0.058
1781765978141,-0.2718,0.7522,-0.9982,1.2364,-0.0134,0.0898
1781765978181,-0.4873,0.7207,0.103,1.4184,-0.1759,0.1014
1781765978221,-0.6629,0.1131,0.1986,1.6225,-0.2987,0.2456
1781765978261,-0.3539,-0.0997,0.0205,1.8234,-0.292,0.3574
1781765978301,-0.3485,-0.1428,-1.0243,1.8198,-0.2706,0.3158
1781765978341,0.2618,-0.1351,-0.2641,1.8821,-0.3018,0.19
1781765978381,-0.1278,-0.1868,0.4414,1.8381,-0.2431,0.1319
1781765978421,0.5398,-0.2964,-0.3527,1.7422,-0.3451,-0.0299
1781765978461,0.4059,0.2862,0.4897,1.7373,-0.3476,-0.2865
1781765978501,0.2237,0.1251,0.8024,1.6054,-0.179,-0.5003
1781765978541,-0.2056,-0.5007,1.0783,1.54,-0.0861,-0.4557
1781765978581,-0.2642,-0.3331,0.963,1.5559,-0.0293,-0.452
1781765978621,-0.0511,0.4128,0.6293,1.5064,0.1191,-0.493
1781765978661,-0.2243,0.0563,1.2694,1.5162,0.1344,-0.4606
1781765978701,-0.01,-0.0305,0.5775,1.5003,0.0037,-0.5962
1781765978741,0.1091,0.0864,0.8851,1.4587,0.036,-0.496
1781765978781,-0.8587,-0.5745,1.01,1.3922,-0.0348,-0.5443
1781765978821,0.7442,0.2129,1.1588,1.3213,0.0825,-0.6286
1781765978861,0.3747,-0.0146,1.1049,1.2908,-0.102,-0.5058
1781765978901,0.2158,0.7843,0.577,1.1735,-0.1167,-0.4704
1781765978941,-0.5139,0.285,0.5409,1.0794,-0.0195,-0.3824
1781765978981,-0.777,0.0666,0.0552,0.9187,0.0849,-0.2407
1781765979021,0.7192,0.3544,0.5473,0.7752,0.2101,-0.2535
1781765979061,1.3067,0.6071,0.8453,0.6231,0.1313,-0.201
1781765979101,-0.2858,-0.1404,-0.3188,0.4294,0.1075,-0.0965
1781765979141,0.1215,-0.0031,0.4856,0.1985,0.1118,-0.0293
1781765979181,0.4165,-0.5511,0.1875,-0.0195,0.1167,0.0006
1781765979221,0.6354,0.041,0.6201,0.014,0.2523,-0.0513
1781765979261,-0.0279,-0.0155,0.7559,0.0996,0.1973,-0.0092
1781765979301,0.3584,-0.1033,0.5042,0.0965,0.1509,-0.0287
1781765979341,0.4767,-0.0993,0.3986,0.0776,0.1979,-0.0544
1781765979381,0.3266,0.1378,0.2851,0.1032,0.1338,-0.0672
1781765979421,-0.8244,0.5499,-1.9278,0.0648,0.0843,-0.0171
1781765979461,0.5043,-0.2948,0.1873,-0.0305,0.058,-0.0189
1781765979501,0.332,-0.0644,0.4255,-0.1179,0.0153,0.022
1781765979541,0.1032,-0.1616,0.4276,-0.2743,-0.0672,0.0867
1781765979581,0.3967,-0.3639,0.1659,-0.5321,-0.2217,0.171
1781765979621,0.5637,0.0779,0.2404,-0.7184,-0.4154,0.193
1781765979661,0.0496,0.8382,0.7017,-0.9365,-0.2468,0.2517
1781765979701,-0.5534,0.6559,-0.6987,-1.5913,-0.0874,0.3427
1781765979741,-0.5144,0.1724,-0.9114,-1.7116,-0.1723,0.5296
1781765979781,-0.2683,2.0886,2.245,-1.4734,-0.0623,0.661
1781765979821,0.2317,0.7928,0.8353,-1.8497,0.3647,0.6359
1781765979861,-1.1033,0.5291,1.8212,-1.5754,0.0104,0.7929
1781765979901,1.8502,0.5574,0.9032,-1.5479,-0.3476,0.6799
1781765979941,-0.8206,1.7003,0.4536,-1.6701,-0.2816,0.6121
1781765979981,0.5051,-0.4022,-0.0121,-1.5669,-0.2541,0.631
1781765980021,-0.849,-0.3792,0.3904,-1.6567,0.2889,0.3781
1781765980061,0.1282,0.3805,-0.7338,-1.7416,0.3775,0.3616
1781765980101,0.9928,0.4151,-0.6076,-1.7263,0.3995,0.0507
1781765980141,-0.6933,0.8239,0.4456,-1.733,0.2621,-0.0073
1781765980182,-1.3515,-0.7065,-0.2565,-1.6964,0.3293,0.0983
1781765980222,-0.6727,0.11,-1.673,-1.6176,0.3152,-0.0318
1781765980261,-0.592,0.1839,-0.3153,-1.5375,0.1466,0.0464
1781765980301,0.0301,-0.4989,-0.7944,-1.3421,0.201,0.0849
1781765980341,0.0248,0.5805,-1.058,-1.2889,0.0965,-0.0623
1781765980381,-0.3533,0.1756,-0.9461,-1.2321,0.2107,-0.1185
1781765980421,-0.1799,-0.061,-0.9838,-1.0941,0.2786,-0.0495
1781765980461,-0.0501,0.3035,-0.566,-0.8131,0.088,0.0165
1781765980501,0.0581,-0.0344,-0.3683,-0.6585,0.0373,0.0336
1781765980541,0.2031,0.293,-0.8273,-0.4991,0.0574,-0.0397
1781765980581,-0.0874,0.2389,-0.7904,-0.3067,0.0122,-0.0177
1781765980621,-0.138,0.3862,-0.8399,-0.1362,-0.0275,0.0159
1781765980661,0.3744,0.7256,-1.0758,0.0379,-0.0483,-0.0397
1781765980702,0.0033,0.7512,-1.4396,0.3225,0.0012,-0.0635
1781765980741,-0.502,0.8326,-1.5462,0.5712,0.066,0.0037
1781765980781,0.2229,0.8778,-0.8482,0.9517,-0.091,0.1057
1781765980821,-0.7233,-0.084,-1.3249,1.1435,-0.1222,0.1582
1781765980861,-0.2273,-0.0832,-1.2313,1.2828,-0.0776,0.1319
1781765980902,0.4774,-0.312,-0.6734,1.4557,-0.0959,0.1032
1781765980941,0.3092,-0.4845,-0.4586,1.6261,-0.1881,0.0263
1781765980981,0.0313,-0.3858,-0.8163,1.7526,-0.1362,-0.0501
1781765981021,-0.3347,-0.1684,0.2342,1.8106,-0.1552,-0.0269
1781765981061,0.1291,-0.2984,-0.387,1.8118,-0.1332,-0.0476
1781765981101,0.3979,-0.3397,1.0825,1.8222,-0.3537,-0.1075
1781765981141,0.604,0.0202,0.1,1.7764,-0.4148,-0.3421
1781765981182,-0.5892,-0.2785,0.4695,1.6622,-0.146,-0.3946
1781765981221,-0.079,-0.5291,1.0705,1.6561,-0.0434,-0.3665
1781765981261,-0.0121,0.4607,0.7923,1.6139,-0.0421,-0.2792
1781765981301,0.4117,0.7966,1.1153,1.6432,-0.0116,-0.3616
1781765981341,0.1498,0.8083,0.5866,1.6194,-0.0635,-0.5663
1781765981381,-0.7902,0.1446,1.385,1.6231,-0.0568,-0.6041
1781765981422,0.3983,-0.0931,0.2442,1.6567,-0.2022,-0.4838
1781765981461,-0.1386,0.594,0.4088,1.4789,-0.1075,-0.4343
1781765981501,0.008,0.4526,1.373,1.5571,0.011,-0.3958
1781765981541,-0.1547,1.0187,0.1722,1.3421,-0.0733,-0.3543
1781765981581,1.0637,0.9096,-0.2721,0.8949,0.3005,-0.7025
1781765981621,0.0244,0.5103,-0.1964,0.653,0.314,-0.6103
1781765981661,-1.2043,0.139,0.4374,0.4508,0.1991,-0.2285
1781765981701,-0.8898,-0.9023,0.7637,0.4038,-0.1802,0.1698
1781765981741,1.215,-0.1442,-0.6392,0.0574,-0.0183,-0.0519
1781765981781,0.5162,0.209,0.0617,-0.0525,-0.0751,-0.1161
1781765981822,0.0341,0.0044,0.813,-0.0073,0.1161,-0.044
1781765981861,-0.2557,-0.3222,0.4965,0.0525,0.2944,0.0385
1781765981902,0.564,0.0475,0.1931,0.0648,0.1014,0.0238
1781765981941,1.477,0.5802,1.2047,0.0079,-0.1136,-0.0104
1781765981981,0.1235,-0.0911,0.13,-0.0397,-0.1252,0.0024
1781765982021,-0.3373,-0.0361,0.5142,0.0745,0.0452,-0.0391
1781765982061,-0.1994,0.422,-0.0483,0.1063,0.1387,-0.0593
1781765982101,0.1109,-0.2578,-0.2438,0.0684,0.0238,-0.0263
1781765982141,0.4094,-0.01,-0.442,0.0568,-0.1588,-0.055
1781765982181,-0.3241,0.1368,-0.0918,0.0727,-0.113,-0.0464
1781765982222,-0.3043,-0.0211,0.2071,0.0776,-0.1191,-0.0183
1781765982261,-0.02,-0.2715,0.0108,0.0806,-0.0727,-0.036
1781765982301,-0.1873,-0.0182,0.1148,0.0476,-0.047,-0.0367
1781765982341,-0.2443,-0.3019,0.2894,0.0525,-0.0312,0.0043
1781765982381,0.0627,-0.0665,0.2506,0.0092,0.0617,-0.0116
1781765982421,0.1178,-0.0787,0.1892,-0.0104,0.0287,0.0183
1781765982461,0.0477,0.2912,0.1793,-0.0165,-0.0195,-0.011
1781765982501,-0.0892,-0.2562,0.0845,-0.0171,0.0953,-0.0153
1781765982541,-0.5547,0.0637,-0.518,-0.0599,0.1808,0.0696
1781765982581,-0.023,-0.5097,-0.1546,-0.1613,0.0648,0.0507
1781765982621,0.367,0.1183,0.0012,-0.1833,0.0525,0.11
1781765982661,0.3944,0.0409,-0.0943,-0.2584,0.0092,0.2046
1781765982701,0.1476,-0.1834,-0.0304,-0.3714,-0.113,0.2132
1781765982742,0.5337,0.004,0.5768,-0.4105,0.0244,0.1271
1781765982782,-0.4571,0.8357,0.9629,-0.5082,-0.0421,0.1374
1781765982822,-0.6817,0.0287,-0.2917,-0.7703,-0.0299,0.2712
1781765982863,-0.8767,0.0031,-0.6877,-1.4661,-0.0073,0.46
1781765982901,-0.0044,2.2688,-0.4895,-1.6921,0.3427,0.4191
1781765982941,1.5689,0.5719,1.2014,-1.8491,-0.9627,0.4862
1781765982982,0.9148,0.3302,0.7461,-1.7764,0.4404,0.6066
1781765983021,0.6851,2.2751,1.5289,-1.6805,-0.4355,0.4679
1781765983062,1.4573,0.4159,-0.1623,-1.8485,-0.1387,0.6854
1781765983102,-0.8058,0.1143,1.2534,-1.7489,-0.2334,0.609
1781765983142,-0.0154,0.9421,0.7963,-1.6499,-0.3024,0.5858
1781765983181,-1.6778,0.4764,-0.6846,-1.7355,0.0739,0.438
1781765983221,0.091,1.4196,0.1188,-1.843,0.5162,0.146
1781765983261,0.8249,1.3272,-0.8466,-1.7514,0.2382,0.2101
1781765983302,-0.2023,0.72,0.1081,-1.7006,0.358,0.2358
1781765983342,-0.7829,0.0973,-1.3274,-1.6243,0.0214,0.157
1781765983381,0.3847,0.2015,-0.1977,-1.4771,0.1545,0.0324
1781765983421,-0.5489,0.2718,-1.1009,-1.372,0.0629,-0.0739
1781765983461,-0.6282,-0.4847,-0.9143,-1.2932,0.1063,-0.0092
1781765983502,-0.2441,0.3402,-0.7589,-1.0733,0.0745,-0.0458
1781765983541,-0.4816,0.0628,-1.5009,-1.0,-0.0067,0.0006
1781765983581,0.5192,-0.1028,-0.8736,-0.9126,0.0556,-0.0519
1781765983621,0.2468,-0.3903,-1.0302,-0.7721,0.044,-0.0214
1781765983661,-0.2731,0.4452,-1.1047,-0.5394,-0.0031,0.0312
1781765983701,-0.0313,0.2338,-1.6386,-0.2175,-0.1045,0.0379
1781765983741,-0.7366,0.2567,-2.0427,0.0904,0.0012,0.0788
1781765983781,0.1159,0.266,-2.1446,0.4386,0.0745,0.0006
1781765983821,0.2748,-0.2909,-1.879,0.697,-0.0843,-0.0067
1781765983861,-0.3396,0.0644,-1.281,0.9261,-0.0342,-0.044
1781765983901,0.114,-0.0096,-1.0222,1.157,-0.1185,0.0195
1781765983941,0.0009,-0.168,-0.1391,1.3396,-0.1655,-0.0024
1781765983982,-0.2198,-0.1605,-1.4281,1.3983,-0.0544,0.0
1781765984021,-0.4685,0.1747,-0.9628,1.5828,-0.0562,0.0348
1781765984061,-0.1155,0.3661,-0.5361,1.6121,-0.1741,0.0257
1781765984101,-0.2761,0.0881,-0.2758,1.6084,-0.1472,-0.0568
1781765984141,-0.3272,0.1365,1.0631,1.6652,-0.1423,-0.1057
1781765984181,0.0791,0.0464,0.3591,1.6255,-0.1118,-0.2718
1781765984221,-0.4394,-0.2002,0.5273,1.5052,0.0189,-0.3024
1781765984262,0.3893,0.163,0.5729,1.4691,0.0849,-0.3555
1781765984301,-0.4901,0.1832,0.6946,1.4868,0.1136,-0.3616
1781765984341,-0.2271,0.5042,0.4847,1.4997,-0.0421,-0.3903
1781765984381,-0.4454,0.1523,1.0142,1.5571,-0.0593,-0.4527
1781765984421,0.0274,-0.0169,1.1019,1.5449,-0.0593,-0.4172
1781765984461,0.2804,0.3673,1.0303,1.686,-0.0531,-0.4527
1781765984501,1.2394,-1.4791,-0.3344,2.0953,0.4924,-0.598
1781765984541,1.2611,-1.3142,3.4781,1.959,-0.2639,-0.6292
1781765984582,0.2437,1.5097,0.9022,1.8955,-0.5064,-0.4496
1781765984622,1.3367,2.6337,-1.1409,1.1533,-0.0159,-0.7251
1781765984661,-0.9417,2.5884,-1.0852,0.4545,-0.0623,-0.7184
1781765984701,-3.7831,-2.3176,-1.885,-0.3549,-0.3378,0.0977
1781765984741,0.1342,-1.0896,0.6566,-0.4881,-0.1753,0.4972
1781765984782,2.151,0.6873,3.1312,0.0086,0.7355,0.0782
1781765984822,3.0143,1.2476,2.1169,0.4032,0.0531,-0.1417
1781765984861,2.9007,1.7647,-0.7388,0.2578,-0.923,-0.0941
1781765984901,-2.3933,-3.4146,-0.8914,0.0397,-0.2279,-0.1136
1781765984941,-2.4772,0.4047,0.3483,0.0049,0.427,0.0867
1781765984981,-0.8299,0.6463,0.5069,0.113,0.617,0.1668
1781765985022,2.0177,-0.9728,-0.5367,-0.066,0.4417,0.0159
1781765985062,1.7092,0.0517,0.6022,-0.0788,-0.0336,-0.0635
1781765985101,-0.114,0.5086,1.4146,0.0263,-0.0495,0.0104
1781765985141,0.7631,-0.7912,0.4137,-0.0837,-0.0018,0.0202
1781765985182,0.8316,-0.314,-0.1479,-0.2883,-0.2798,0.0177
1781765985221,-0.0843,0.4188,0.2408,-0.3928,-0.3891,0.0892
1781765985261,-0.5655,0.3103,0.3197,-0.598,-0.3195,0.223
1781765985301,-0.3303,-0.5661,-0.6225,-0.8131,-0.3983,0.3176
1781765985343,-0.7575,1.0578,0.5758,-1.0348,-0.0996,0.6023
1781765985382,1.1604,0.6026,-1.8346,-1.7,-0.0458,0.4551
1781765985422,-0.9473,1.9932,1.1138,-1.3769,-0.2761,0.6322
1781765985461,1.7036,0.585,-1.0692,-1.9419,0.248,0.4728
1781765985502,0.0608,1.237,0.816,-1.5876,-0.1704,0.3415
1781765985542,-0.9468,0.9449,1.4929,-1.5828,0.0415,0.6371
1781765985582,0.7033,0.1282,0.1108,-1.5999,-0.1753,0.4783
1781765985621,-1.2822,-0.1266,1.1532,-1.4404,0.0031,0.4362
1781765985661,-0.3808,0.0349,0.1527,-1.4545,-0.0788,0.4007
1781765985702,1.4861,-0.7026,-1.2306,-1.4355,0.1264,0.3317
1781765985742,1.0329,0.6339,-0.7188,-1.5021,0.2169,0.1362
1781765985781,0.244,0.6264,-0.867,-1.4239,0.3103,0.1381
1781765985821,-1.6821,-0.8048,-0.6352,-1.4331,0.1399,0.1735
1781765985862,-0.5911,0.521,-1.191,-1.4227,0.1613,0.135
1781765985902,-0.2117,0.086,-0.1465,-1.361,0.3085,0.0073
1781765985941,0.5752,-0.3472,-0.3868,-1.2358,0.1338,-0.0971
1781765985981,0.0644,0.8244,-0.5087,-1.2553,-0.0159,-0.2181
1781765986021,-0.397,0.5913,-0.2704,-1.1912,0.0257,-0.2181
1781765986061,-1.2766,0.7825,-0.4089,-1.1533,0.3567,-0.2144
1781765986101,-1.2197,0.6402,-0.5755,-1.0757,0.3146,-0.1142
1781765986141,0.6134,0.3443,0.9401,-0.9572,0.0049,0.0275
1781765986181,-0.051,0.2205,-0.1915,-0.8656,-0.0825,0.1607
1781765986221,-0.251,0.214,-0.6294,-0.7978,0.0495,0.1356
1781765986261,0.5164,-0.3046,-0.5838,-0.7214,-0.0134,0.047
1781765986301,0.0608,-0.0214,-0.6506,-0.5938,-0.0501,0.0562
1781765986341,0.0414,0.3605,-0.9657,-0.427,-0.0458,0.0385
1781765986381,0.2158,0.3062,-0.7596,-0.1881,0.0018,-0.0324
1781765986421,-0.71,0.3376,-2.2152,0.0745,0.0996,-0.0678
1781765986461,0.169,0.5243,-1.8549,0.3457,0.1295,-0.1106
1781765986501,-0.5259,0.4279,-1.5939,0.6158,0.1093,-0.0403
1781765986542,-0.52,0.659,-1.0752,0.8381,0.2077,0.0385
1781765986581,-0.0197,0.7524,0.0294,1.1442,0.1155,0.0947
1781765986621,-0.443,0.496,-0.7639,1.215,0.091,0.1081
1781765986661,-0.4512,0.4953,0.1901,1.4447,-0.0226,0.2315
1781765986701,-0.1436,-0.1947,-0.7973,1.5858,-0.2786,0.2767
1781765986742,-0.0306,0.2167,0.3458,1.689,-0.369,0.2242
1781765986781,0.6149,-0.1401,0.0202,1.6787,-0.4789,0.0501
1781765986821,-0.4572,-0.3161,-1.1806,1.7446,-0.4545,-0.0489
1781765986861,-0.4437,-0.1446,0.281,1.664,-0.3109,0.0269
1781765986901,0.1617,0.0534,0.5451,1.5479,-0.2865,-0.0006
1781765986941,0.4244,0.4195,-0.2395,1.4276,-0.3097,-0.2303
1781765986981,-0.0308,0.0887,0.6552,1.3677,-0.1136,-0.38
1781765987021,-0.7275,-0.2962,1.0463,1.3641,0.0525,-0.3311
1781765987061,-0.0403,-0.3642,0.7192,1.358,0.1106,-0.3842
1781765987102,0.1749,-0.6981,1.3328,1.2639,0.1124,-0.493
1781765987141,0.5496,0.7169,1.2764,1.3158,-0.0238,-0.5162
1781765987181,0.1049,0.1391,1.0584,1.3787,-0.1521,-0.5137
1781765987221,-0.7801,-0.1254,0.7229,1.4123,-0.1778,-0.4227
1781765987261,0.4818,-0.2746,1.0801,1.3952,0.1264,-0.5247
1781765987302,0.7179,-0.1498,-0.1266,1.2712,0.2621,-0.482
1781765987342,0.6235,0.0931,1.3058,1.1222,0.0922,-0.515
1781765987381,0.4982,0.5243,1.1576,1.2761,0.1417,-0.5186
1781765987421,-0.2836,0.4002,0.8101,1.1515,0.1362,-0.4801
1781765987461,-0.555,0.3682,0.3679,1.0623,0.2004,-0.4282
1781765987502,-0.2566,0.8729,0.9232,0.9071,0.0446,-0.3745
1781765987541,1.3651,1.2658,0.7772,0.5547,0.0721,-0.2853
1781765987582,-1.6113,-0.6794,-0.7913,0.1442,-0.1515,0.0098
1781765987621,0.4021,-1.3663,-0.4018,-0.1026,-0.2688,0.0538
1781765987662,0.4868,0.6939,0.5893,-0.0043,0.0037,-0.1057
1781765987701,-0.936,0.2004,0.5428,0.0941,0.0892,0.011
1781765987741,0.7809,-0.607,0.4684,0.069,-0.0348,-0.0354
1781765987781,1.0254,0.3187,0.4062,0.044,0.0397,-0.1564
1781765987821,-0.2426,0.2454,0.3962,0.0757,-0.0018,-0.0666
1781765987861,0.2997,-0.5751,-0.0223,0.0269,-0.0214,-0.0299
1781765987901,0.2581,0.0783,-0.0159,-0.0507,0.0055,-0.0226
1781765987941,-0.054,0.0678,0.1757,-0.0904,0.014,0.0232
1781765987981,-0.1096,-0.2778,0.0046,-0.2474,-0.0782,0.0721
1781765988021,0.3877,-0.0747,-0.2643,-0.4227,-0.0195,0.0635
1781765988062,-0.6033,0.0828,-0.1153,-0.6689,-0.1729,0.2144
1781765988101,0.1775,-0.3032,-0.1136,-0.931,-0.2114,0.3537
1781765988141,0.2182,0.571,0.4571,-1.2223,-0.0825,0.4368
1781765988181,-0.3839,0.9078,0.2053,-1.5473,-0.0116,0.4691
1781765988221,0.3315,0.1899,0.4516,-1.7379,-0.1539,0.5107
1781765988261,0.8403,1.5658,0.9713,-1.7507,0.0354,0.5785
1781765988301,0.132,0.389,1.5328,-1.6732,-0.0764,0.6891
1781765988341,0.5566,0.1842,0.56,-1.7966,-0.2572,0.3445
1781765988381,-1.3049,0.5192,0.903,-1.6328,0.0996,0.537
1781765988421,-1.681,-0.0624,0.1068,-1.5058,-0.1943,0.7031
1781765988462,0.738,0.9024,0.1514,-1.3085,-0.0617,0.5308
1781765988501,0.3556,-0.1084,-0.8922,-1.493,-0.036,0.4924
1781765988541,-0.7318,0.0308,-0.7915,-1.5589,0.4588,0.1998
1781765988581,0.6641,0.3913,0.0901,-1.6109,0.4948,0.0409
1781765988621,0.0049,0.4472,-1.0513,-1.686,0.4386,-0.0837
1781765988661,-1.3254,-0.1348,-0.4792,-1.609,0.2474,-0.0092
1781765988701,0.1184,0.1753,-0.5387,-1.5174,0.1747,-0.0428
1781765988742,0.5437,-0.362,-0.1518,-1.4875,0.3048,-0.1277
1781765988781,0.3696,0.3983,-0.4842,-1.4227,0.292,-0.2938
1781765988821,-0.2476,0.375,-0.4108,-1.1515,0.0574,-0.1991
1781765988861,-0.3435,0.2487,-1.6234,-1.0825,-0.2413,0.0452
1781765988901,-0.232,0.7187,-0.4595,-1.0122,0.0018,0.0892
1781765988941,0.8819,0.6573,-0.5748,-0.9823,0.1741,-0.1142
1781765988982,0.6001,1.0088,0.4341,-0.8674,0.1662,-0.2608
1781765989021,-0.3972,1.7529,0.0431,-0.785,0.1381,-0.193
1781765989061,-0.1184,0.933,-0.0095,-0.7147,-0.0189,-0.0599
1781765989101,0.1481,0.7394,-0.1327,-0.6274,-0.0996,-0.1222
1781765989141,-0.6017,0.2651,-0.9475,-0.5241,0.0122,-0.1216
1781765989181,-0.0697,0.1418,-1.2409,-0.3738,-0.0916,-0.0159
1781765989221,-0.0565,0.3533,-1.4694,-0.1142,-0.1173,0.0605
1781765989261,0.0332,0.0926,-2.2615,0.1454,-0.0959,0.0507
1781765989301,-0.359,1.2569,-2.1333,0.4966,0.3977,-0.0073
1781765989342,-0.2539,0.6537,-1.509,0.7886,0.325,0.0263
1781765989381,-0.0819,0.0518,-0.6303,1.1668,0.0238,0.1026
1781765989421,-0.016,-0.072,-0.4433,1.3854,-0.0996,0.1863
1781765989462,-0.47,-0.0321,-0.6678,1.5272,-0.0098,0.1142
1781765989501,-0.3394,0.005,-0.1177,1.6328,0.0379,0.1118
1781765989541,-0.3727,0.0161,-0.4802,1.7819,-0.1924,0.1655
1781765989581,-0.5619,-0.2211,-0.0595,1.8827,-0.2847,0.1839
1781765989621,-0.6499,-0.4125,0.4953,1.9926,-0.2083,0.226
1781765989661,0.2479,-0.5771,-0.2459,1.89,-0.2065,0.1155
1781765989701,0.3595,-0.2949,-0.227,1.8369,-0.3549,-0.0061
1781765989741,0.59,-0.1771,0.8694,1.7623,-0.372,-0.2407
1781765989781,-0.0933,-0.4113,0.7467,1.5889,-0.2107,-0.3616
1781765989821,0.1288,-0.4022,1.027,1.5278,-0.0428,-0.3824
1781765989861,0.3814,0.2994,0.9607,1.4746,-0.033,-0.4068
1781765989901,0.0069,0.2431,0.8879,1.4746,0.0153,-0.3867
1781765989942,-0.3665,0.3065,1.5573,1.4985,-0.0593,-0.3751
1781765989981,0.1723,0.0355,0.8423,1.4575,-0.044,-0.391
1781765990021,0.2498,-0.1686,1.1483,1.5119,0.1228,-0.3891
1781765990061,-0.2175,-0.4111,0.6368,1.4313,0.171,-0.4032
1781765990101,0.184,0.1541,1.1366,1.3225,0.1833,-0.2957
1781765990141,0.2614,0.5659,0.6943,1.2242,0.2279,-0.2669
1781765990182,-0.1972,0.1197,0.931,1.0751,0.2187,-0.1845
1781765990221,-0.0122,0.2182,1.0241,0.9316,0.2511,-0.1393
1781765990261,0.5004,0.0391,0.738,0.8387,0.1362,-0.1112
1781765990302,0.6109,-0.1559,0.495,0.7795,0.1814,-0.1759
1781765990341,0.4537,0.2886,1.3334,0.8931,0.0977,-0.2425
1781765990382,0.1634,1.2269,2.3121,0.7428,0.3311,-0.1454
1781765990421,-0.2351,-0.3768,0.2687,0.1985,0.1515,0.0531
1781765990462,1.6173,-1.6265,-1.2967,-0.2773,-0.1216,0.0495
1781765990501,0.579,0.5829,0.5816,-0.1307,-0.1454,-0.0825
1781765990541,-1.4859,0.4565,0.975,0.099,-0.0214,0.077
1781765990581,0.1383,-0.3964,0.5165,0.0672,0.0831,0.0403
1781765990621,1.1953,-0.0775,0.144,0.0116,-0.0293,-0.1277
1781765990663,-0.4147,0.2591,0.1123,0.0079,-0.1191,-0.0055
1781765990702,0.0597,-0.3436,-0.1483,-0.0232,-0.0531,0.0067
1781765990742,0.0021,0.0024,0.1938,0.0055,0.033,-0.0525
1781765990781,-0.0038,0.2102,0.2874,0.0281,0.0208,-0.0232
1781765990821,0.3134,-0.2008,-0.2596,-0.0672,-0.0312,-0.0232
1781765990861,0.1434,-0.1704,-0.369,-0.1674,-0.077,-0.0067
1781765990901,0.0822,-0.0332,-0.0178,-0.2914,-0.036,0.0544
1781765990942,0.0697,-0.4524,-0.1776,-0.482,-0.226,0.1442
1781765990982,0.2349,0.0132,-0.0482,-0.6701,-0.4001,0.1753
1781765991022,0.3575,0.5025,-0.0179,-0.7672,-0.2957,0.1875
1781765991061,-0.4262,0.4205,0.6116,-0.9346,-0.2315,0.2187
1781765991101,0.1525,-0.108,-1.5716,-1.5876,-0.0391,0.3555
1781765991142,0.2615,1.2518,0.4798,-1.5485,-0.2834,0.3934
1781765991182,-0.1576,1.2286,0.8026,-1.7147,0.0715,0.4545
1781765991221,0.2405,0.0428,-0.0527,-1.449,0.0837,0.4539
1781765991262,0.0359,-0.0574,0.203,-1.5272,0.2767,0.6029
1781765991302,0.0428,1.2503,0.9538,-1.3677,-0.1069,0.5559
1781765991341,-0.5664,1.0338,-0.8532,-1.2969,-0.0629,0.5901
1781765991381,-0.4241,-0.1823,0.3337,-1.2737,-0.044,0.3726
1781765991422,0.473,0.5553,-0.3005,-1.2498,0.0409,0.2388
1781765991461,-0.4436,-0.2726,0.2989,-1.1967,0.1057,0.2132
1781765991502,-0.2177,0.9042,0.5866,-1.2975,0.2101,0.124
1781765991542,0.2266,0.4913,0.4158,-1.4209,0.1735,-0.0006
1781765991581,-0.6202,0.5393,0.0239,-1.4349,0.2987,-0.1002
1781765991621,0.1703,1.0798,-0.2857,-1.5369,0.3183,-0.1936
1781765991661,0.3502,0.3884,-0.5663,-1.5107,0.1808,-0.1906
1781765991701,-0.3434,0.344,-0.2397,-1.5608,0.3885,-0.1704
1781765991742,-0.8413,0.1977,-0.8218,-1.4697,0.1674,-0.1613
1781765991781,-0.2321,-0.1977,-0.5558,-1.2352,0.1057,-0.0623
1781765991821,0.6243,0.0226,-0.0513,-1.1167,0.0324,-0.0739
1781765991861,1.114,0.8999,-0.2274,-1.1405,0.0959,-0.2926
1781765991901,-0.2051,-0.0686,-0.5386,-1.0122,0.121,-0.2908
1781765991942,-0.1877,0.8104,-0.9667,-0.9059,0.2309,-0.1515
1781765991981,0.5888,0.5417,-0.1336,-0.7782,0.0434,-0.1405
1781765992021,-0.5509,0.4242,-0.6275,-0.5834,0.0562,-0.0568
1781765992061,-0.0684,0.4219,-0.5296,-0.471,0.0299,-0.0195
1781765992101,-0.1279,0.5059,-0.3963,-0.3861,-0.0043,0.011
1781765992142,-0.1283,0.0996,-0.7351,-0.2651,-0.1069,0.0556
1781765992181,-0.1668,0.5615,-0.5051,-0.1228,-0.0739,0.0715
1781765992221,0.0823,0.1811,-1.4691,0.0269,-0.0892,0.0794
1781765992261,0.0146,0.0024,-2.099,0.2578,-0.0177,0.055
1781765992301,-0.0717,0.607,-0.8441,0.5296,0.0764,0.0843
1781765992341,0.47,1.0334,-1.1646,0.8027,0.1228,-0.0776
1781765992381,0.4264,0.1362,-1.2269,1.0611,0.047,-0.1173
1781765992421,-0.1916,0.0313,-0.3843,1.2963,0.0147,-0.0342
1781765992461,-0.5943,0.3807,-0.4363,1.3451,0.0574,0.0403
1781765992501,-0.5088,-0.2995,-0.2055,1.6121,-0.1949,0.2126
1781765992541,-0.3467,-0.1872,-0.2216,1.6054,-0.2596,0.2853
1781765992581,-0.9952,-0.0294,-0.2749,1.5547,-0.1246,0.2865
1781765992621,-0.514,0.1696,0.2464,1.5321,-0.1087,0.1881
1781765992661,0.0751,0.2042,-0.2155,1.5382,-0.124,0.1527
1781765992701,0.7271,-0.1248,0.2236,1.5088,-0.3305,0.0153
1781765992741,0.5945,0.0402,0.3214,1.3861,-0.2902,-0.2034
1781765992781,-0.426,-0.5323,0.1686,1.2956,-0.055,-0.248
1781765992821,0.0243,-0.4997,0.5547,1.2242,0.0165,-0.2663
1781765992861,0.2235,-0.2792,0.5793,1.1545,0.0336,-0.2841
1781765992901,0.264,0.0113,1.348,1.2162,-0.0513,-0.2382
1781765992941,0.1643,-0.1902,1.0897,1.1985,-0.0452,-0.2596
1781765992981,-0.4722,-0.4168,0.6132,1.168,0.0996,-0.2694
1781765993021,0.0199,-0.0012,1.1727,1.2046,0.2303,-0.2468
1781765993061,0.7625,-0.1237,1.0738,1.1729,0.1417,-0.2431
1781765993101,0.3829,-0.1032,0.8085,1.1533,0.0342,-0.2419
1781765993141,0.4297,-0.0018,0.532,1.0867,-0.0183,-0.2786
1781765993181,0.164,0.1675,0.701,0.9829,-0.0397,-0.2511
1781765993221,-0.6587,-0.1487,0.3944,1.0757,0.0208,-0.1967
1781765993261,-0.8592,0.0303,0.4052,0.9358,0.1869,-0.0257
1781765993301,-0.3779,-0.0499,0.8596,0.8515,0.1613,0.0629
1781765993341,0.5628,0.727,0.3175,0.7355,0.11,-0.0544
1781765993381,1.022,0.0675,0.1622,0.6426,0.204,-0.1246
1781765993421,0.556,-0.1028,0.1642,0.5406,0.1863,-0.1979
1781765993461,-0.3859,0.0468,0.4238,0.4386,0.0134,-0.0782
1781765993502,-0.0314,-0.1178,-0.426,0.3439,-0.0397,-0.0299
1781765993541,0.4907,0.3686,1.2087,0.2566,-0.0531,-0.0434
1781765993581,0.0722,-0.1653,-0.3224,0.1619,-0.0452,-0.0904
1781765993622,-0.5626,-0.2831,0.5631,0.0929,0.099,-0.0385
1781765993661,0.0906,0.115,0.5603,0.0654,0.1191,-0.0544
1781765993701,-0.1972,-0.0362,0.115,0.0599,0.033,-0.0079
1781765993741,0.057,-0.3363,-0.2244,0.0495,0.0623,-0.0086
1781765993781,-0.0302,-0.2488,0.2549,-0.0324,0.0611,0.0257
1781765993821,0.7914,0.3612,0.4399,0.0226,0.0195,-0.0324
1781765993862,0.1786,-0.0814,0.0409,0.0128,0.0562,-0.0281
1781765993902,0.4422,-0.3643,0.3303,-0.0513,-0.0593,-0.0073
1781765993942,0.5629,0.3939,0.6373,-0.022,-0.1289,-0.0409
1781765993982,-0.1069,-0.0243,0.2278,-0.0757,-0.1765,0.0147
1781765994021,0.3028,-0.4986,-0.4255,-0.2987,-0.226,0.0263
1781765994061,-0.035,0.0042,0.2237,-0.4337,-0.1894,0.1069
1781765994101,-0.6037,0.2712,0.1623,-0.6432,-0.1802,0.2046
1781765994142,-0.5345,-0.2924,-0.6107,-0.8974,-0.2511,0.2981
1781765994181,-0.6729,0.6816,-1.1295,-1.4526,0.0104,0.4826
1781765994221,-0.7214,0.3089,0.4033,-1.5339,0.0983,0.5082
1781765994262,0.4171,1.6196,-0.3854,-1.8711,0.2993,0.5479
1781765994301,0.412,0.4231,1.1781,-1.7159,-0.036,0.4924
1781765994341,0.3888,1.2334,0.52,-1.4343,-0.0464,0.5974
1781765994381,0.1723,0.3335,1.7699,-1.7025,-0.0623,0.6267
1781765994421,0.4851,0.6013,0.4134,-1.4532,-0.2969,0.3293
1781765994461,0.2043,-0.2008,0.8174,-1.394,-0.1313,0.38
1781765994501,-0.0209,-1.111,-0.7988,-1.3421,-0.1277,0.2871
1781765994541,0.0306,0.6864,-0.9199,-1.3256,0.0513,0.2254
1781765994581,-1.4907,1.0827,-1.1806,-1.3873,0.1093,0.2181
1781765994621,-0.1449,0.8424,-0.024,-1.3732,0.295,0.0635
1781765994661,-1.1978,0.272,-0.6458,-1.3329,0.1185,0.0739
1781765994701,-0.2423,0.4725,0.1676,-1.2938,0.1741,0.0764
1781765994741,0.2357,-0.6466,0.1857,-1.2657,0.0299,0.1594
1781765994781,0.6336,0.99,-0.9173,-1.2749,0.1264,-0.0299
1781765994821,-1.0926,0.6268,-1.4174,-1.3237,0.0116,-0.0727
1781765994861,0.5561,0.0887,-0.8778,-1.1619,0.0275,-0.1851
1781765994901,-0.3523,-0.1196,-0.7127,-1.1368,0.1338,-0.2138
1781765994941,-0.3857,0.9834,-0.7437,-1.0806,0.1478,-0.2596
1781765994981,-0.5758,0.2206,-0.2597,-0.9731,0.1417,-0.1851
1781765995021,0.0225,0.7111,-0.1138,-0.8479,-0.0489,-0.0922
1781765995061,-0.6919,0.1362,-0.0597,-0.741,-0.0122,0.0006
1781765995101,0.3032,0.2504,-0.7796,-0.7575,0.121,0.0367
1781765995141,0.5304,0.41,-0.3762,-0.6884,0.1216,-0.1179
1781765995181,-0.1513,0.1741,-0.6595,-0.6194,0.1185,-0.0617
1781765995221,-0.0368,0.5287,-0.4424,-0.5528,0.0904,-0.0385
1781765995261,-0.4911,0.5613,-0.0987,-0.4178,-0.0305,0.0556
1781765995301,0.2747,0.617,-0.6838,-0.3036,-0.0226,0.0336
1781765995341,-0.023,0.6336,-0.6386,-0.2022,0.0702,0.0055
1781765995381,0.0075,0.3905,-0.497,-0.0922,0.0195,0.0226
1781765995421,0.3871,0.1917,-0.7389,0.0519,0.0195,0.0281
1781765995461,-0.0098,0.4404,-0.9375,0.1839,0.0367,0.0458
1781765995501,-0.1191,0.3833,-1.3894,0.3403,0.1179,0.1075
1781765995541,0.1982,1.1095,-0.9894,0.5913,0.1289,0.0678
1781765995581,0.7409,1.0196,-0.6576,0.9285,0.0391,-0.08
1781765995621,-0.3978,0.1526,-0.8924,1.1704,0.0507,-0.0544
1781765995661,-0.135,-0.0231,-0.6651,1.3616,0.1161,0.0128
1781765995701,0.7005,-0.396,-0.0957,1.5009,-0.0782,-0.0299
1781765995741,0.0403,-0.2406,-0.3079,1.5974,-0.1381,-0.0171
1781765995781,-0.6102,-0.4789,-0.674,1.697,-0.1753,0.077
1781765995821,-0.321,-0.4634,-0.16,1.6677,-0.1338,0.1387
1781765995861,0.2814,-0.4731,-0.2641,1.6921,-0.1197,0.0922
1781765995901,0.5059,-0.3525,-0.0122,1.6273,-0.1826,-0.0195
1781765995941,0.0701,-0.3686,0.3542,1.5773,-0.1527,-0.1155
1781765995982,0.461,-0.2307,0.5628,1.5272,-0.146,-0.2077
1781765996021,0.1449,-0.1302,0.4684,1.405,-0.1356,-0.3274
1781765996061,0.0271,0.1174,0.7679,1.3005,-0.0397,-0.336
1781765996101,-0.5532,0.0964,0.743,1.3329,-0.0794,-0.2486
1781765996142,-0.6968,0.0739,0.4742,1.2889,0.0269,-0.1674
1781765996182,-0.2817,0.305,1.1932,1.3011,0.1026,-0.066
1781765996221,-0.2987,0.2299,0.5096,1.3127,0.0556,-0.0922
1781765996261,0.6234,0.0869,0.7065,1.2462,0.182,-0.1686
1781765996301,0.5271,-0.3478,0.9853,1.1881,0.0342,-0.2211
1781765996341,0.6475,0.2754,0.6291,1.1686,0.0782,-0.3549
1781765996381,0.3767,-0.5187,1.0665,1.1215,0.0867,-0.369
1781765996421,0.4611,-0.0697,0.906,1.077,-0.0104,-0.314
1781765996461,-0.1232,0.2233,0.7815,1.0085,-0.0428,-0.256
1781765996501,-0.3705,-0.1299,0.4585,0.9248,0.047,-0.2309
1781765996541,-0.5648,0.1115,0.4962,0.7953,0.146,-0.1692
1781765996582,-0.0049,0.4538,0.2445,0.6439,0.1796,-0.1631
1781765996621,0.4417,0.0538,0.6729,0.5339,0.1362,-0.1539
1781765996661,0.1573,-0.0828,0.0702,0.507,0.08,-0.1643
1781765996701,0.0819,0.0261,0.7596,0.4331,0.1295,-0.1173
1781765996741,0.1347,0.0958,0.5789,0.4924,0.0006,-0.1301
1781765996782,0.0472,0.0736,0.7647,0.5046,0.0971,-0.0904
1781765996821,0.3142,0.1222,0.6969,0.4612,0.1796,-0.1381
1781765996861,0.1852,0.0262,0.17,0.2425,0.1698,-0.0782
1781765996901,0.1365,-0.6326,-0.4442,-0.0195,0.0012,0.025
1781765996941,0.552,-0.0017,0.125,-0.069,0.0544,-0.0385
1781765996982,-0.3133,0.1606,0.745,0.0489,0.1448,0.0134
1781765997021,0.3471,-0.1432,0.4095,0.0513,0.0305,0.0147
1781765997062,0.7158,-0.0065,0.0698,0.0122,-0.0153,-0.0385
1781765997101,-0.1393,-0.1252,0.1859,-0.0061,-0.0715,-0.0452
1781765997141,-0.3422,-0.0891,0.1547,-0.0086,-0.0568,-0.0202
1781765997181,-0.2339,-0.2216,-0.0957,-0.0538,0.0159,-0.014
1781765997222,-0.2749,-0.1716,-0.1002,-0.2132,0.0214,0.0605
1781765997261,0.2157,-0.4503,0.0383,-0.2608,-0.0403,0.0971
1781765997301,0.2381,0.0588,0.0872,-0.4569,-0.1729,0.0733
1781765997341,0.0732,0.2427,0.6693,-0.5192,-0.1765,0.1228
1781765997382,0.3168,0.1135,-0.2282,-0.6194,-0.2407,0.1692
1781765997421,-0.2902,-0.4864,-0.4857,-1.1979,-0.4386,0.3531
1781765997462,-0.6609,1.6676,-0.1702,-1.4416,-0.3812,0.5412
1781765997501,0.7501,0.07,-1.5733,-1.7043,-0.1112,0.4905
1781765997542,-0.3341,0.9814,1.3967,-1.6591,0.0617,0.3384
1781765997581,1.0233,1.6991,0.0106,-1.7428,-0.0678,0.256
1781765997621,-0.4869,-0.3314,0.5008,-1.4471,-0.1503,0.358
1781765997663,0.8233,-0.4253,0.7987,-1.4416,-0.1497,0.4221
1781765997702,-0.2192,1.6445,0.0433,-1.3494,-0.4282,0.3488
1781765997742,-1.8632,-1.1077,-0.1112,-1.2718,-0.2798,0.4001
1781765997782,-0.969,0.4288,-0.8989,-1.2382,0.2779,0.4093
1781765997821,0.3476,1.3587,-0.4861,-1.3641,0.4716,0.0574
1781765997862,-0.4128,0.7661,0.178,-1.3415,0.4044,-0.0489
1781765997901,0.3099,0.2635,-0.4939,-1.3537,0.1631,0.1533
1781765997941,-0.4098,0.4004,-0.448,-1.3036,0.0715,0.1387
1781765997981,-0.2349,0.6683,0.1311,-1.2645,0.2291,0.0733
1781765998021,-0.0829,0.6745,-0.5344,-1.3286,0.3995,-0.0067
1781765998062,0.0518,-0.0158,-0.6748,-1.3329,0.2211,-0.0244
1781765998101,0.8172,0.7827,-0.2487,-1.3231,-0.0037,-0.1436
1781765998141,-0.1884,0.067,0.0848,-1.2956,0.0696,-0.0996
1781765998182,-0.0063,0.4955,-0.0939,-1.1906,0.036,-0.0892
1781765998221,-0.7608,0.8823,-0.8987,-1.1625,0.0391,-0.0788
1781765998262,-0.4169,0.3802,-0.5712,-1.1625,0.0556,-0.0018
1781765998301,-0.688,0.8711,-1.2457,-1.0721,0.0128,-0.0709
1781765998341,0.1029,0.6257,-0.3575,-1.0091,0.0104,-0.0031
1781765998381,-0.2213,0.5037,-0.204,-0.8662,0.0195,0.0489
1781765998421,0.0112,0.4289,-0.4451,-0.8302,-0.0104,0.1038
1781765998461,0.7157,0.4033,-0.1696,-0.6426,0.0055,0.0727
1781765998501,0.4126,0.3819,-0.4383,-0.6432,-0.0269,0.0611
1781765998541,-0.532,0.4093,-1.3527,-0.5143,-0.223,0.0733
1781765998581,-0.3077,0.1001,-0.8411,-0.4087,-0.1234,0.1173
1781765998621,-0.0544,-0.0221,-1.131,-0.3671,-0.08,0.1161
1781765998661,0.2345,0.254,-0.7624,-0.1332,-0.0678,0.0055
1781765998701,-0.1481,-0.1534,-1.1283,-0.0348,-0.0654,-0.0397
1781765998741,-0.0613,0.1681,-1.0,0.0849,0.0764,-0.0654
1781765998781,-0.0773,0.3166,-0.5947,0.2315,-0.033,-0.0214
1781765998821,-0.0634,0.603,-1.186,0.4148,0.135,-0.0122
1781765998861,-0.6476,0.8268,-0.2835,0.5895,0.0605,0.0489
1781765998901,-0.2947,0.4664,-0.6585,0.8418,0.1527,0.1533
1781765998941,0.0242,0.4685,-0.2902,0.989,0.0617,0.1313
1781765998981,-0.2993,0.2013,-0.222,1.1704,-0.0305,0.1063
1781765999021,0.1304,-0.0196,-0.3307,1.2608,0.0006,0.1234
1781765999061,-0.4588,-0.385,0.0341,1.3952,-0.1491,0.1741
1781765999101,0.3245,-0.1029,0.2118,1.4471,-0.223,0.1081
1781765999141,-0.0506,-0.2017,-0.2038,1.4734,-0.2871,0.036
1781765999181,-0.5465,-0.1193,-0.4456,1.4893,-0.2773,0.0696
1781765999221,-0.6854,-0.1157,0.2141,1.4881,-0.1466,0.1106
1781765999261,0.1655,-0.1132,0.1687,1.5253,-0.1833,0.1295
1781765999301,-0.0488,-0.0483,0.1524,1.54,-0.1045,0.1399
1781765999341,1.1089,-0.3923,0.1417,1.5278,-0.1161,0.0257
1781765999381,0.4808,-0.3327,0.7112,1.4887,-0.1497,-0.3592
1781765999421,0.3463,-0.2818,0.5267,1.394,-0.0055,-0.4074
1781765999461,0.583,-0.2157,0.879,1.3457,0.0012,-0.43
1781765999501,0.964,-0.2633,1.1117,1.3696,-0.1906,-0.4539
1781765999541,-0.6674,-0.1213,0.7395,1.2407,-0.3396,-0.4801
1781765999581,-2.1381,-0.1295,0.9269,1.4899,-0.0623,-0.2896
1781765999621,-0.4802,-0.3829,0.6903,1.4154,-0.3085,-0.2211
1781765999661,0.0476,-0.2646,0.1414,1.408,-0.2639,-0.2193
1781765999701,-0.0304,-0.5239,0.9798,1.3018,0.1374,-0.1772
1781765999741,0.6294,-0.7536,1.1536,1.1625,0.4117,-0.292
1781765999781,1.1295,0.1912,0.9546,0.8699,0.5583,-0.336
1781765999821,-0.0399,0.2441,1.3991,0.7556,0.3537,-0.2425
1781765999861,1.1943,0.4981,1.8561,0.7312,0.2822,-0.2804
1781765999901,0.6435,-0.4106,2.0599,0.7966,0.4093,-0.4056
1781765999941,-0.5893,-0.5818,1.5492,1.0446,0.1839,-0.1332
1781765999981,1.8672,1.5474,0.4712,1.2565,0.1851,-0.2914
1781766000021,-0.8909,-1.1892,0.44,0.8864,0.6432,-0.6011
1781766000061,-0.4139,0.5385,0.9778,0.7135,0.2816,-0.2169
1781766000101,0.1945,-0.4106,-0.6355,0.4362,0.2535,0.0544
1781766000141,0.6943,-2.087,-1.6365,-0.1839,-0.1319,0.1527
1781766000181,0.243,0.685,1.3331,-0.3757,-0.256,-0.0275
1781766000221,-1.0876,0.1468,1.2995,-0.0788,-0.0409,0.124
1781766000261,0.9696,-0.1298,0.1183,0.0831,-0.0195,0.0898
1781766000301,0.8068,-0.1962,0.0775,-0.0043,-0.1338,-0.0568
1781766000341,-0.6383,0.0473,0.2085,-0.0318,-0.2957,-0.0128
1781766000381,-0.514,-0.1355,-0.0455,-0.025,-0.0953,-0.0079
1781766000421,-0.2772,0.0741,-0.1454,-0.033,-0.0238,0.0086
1781766000461,0.0997,-0.1904,-0.1398,-0.0397,0.0501,0.0067
1781766000501,0.4718,0.1792,-0.0927,-0.0977,-0.1301,0.0287
1781766000541,0.1205,-0.1107,-0.1663,-0.1478,-0.1857,0.0501
1781766000581,-0.158,-0.1025,-0.0032,-0.3005,-0.1845,0.0898
1781766000621,-0.6914,0.2728,0.1585,-0.4099,-0.1454,0.1631
1781766000661,-0.6557,-0.2743,-0.6618,-0.6561,-0.1955,0.3512
1781766000701,0.3668,0.2663,-0.8076,-1.1405,-0.3567,0.6164
1781766000741,0.8442,0.2808,-0.7313,-1.5314,-0.1319,0.6616
1781766000781,-0.1987,0.8412,1.6532,-1.6591,-0.474,0.5492
1781766000821,0.1361,0.8518,0.8326,-2.0708,0.0782,0.5895
1781766000861,1.2107,2.8134,1.9248,-1.3476,-0.0996,0.6267
1781766000901,3.2695,1.7886,0.6066,-1.6408,0.1692,0.1362
1781766000941,-0.6074,-1.8536,-0.5852,-1.4832,-0.6573,0.2224
1781766000981,0.1983,-0.345,0.898,-1.5217,-0.1014,0.3305
1781766001021,0.2662,0.7013,-0.4218,-1.4685,0.0782,0.1124
1781766001061,-0.4891,-0.9335,-1.1457,-1.4233,0.1735,0.3512
1781766001101,1.7023,1.1121,-0.1331,-1.4997,0.3671,-0.1075
1781766001141,-0.7031,0.2781,-0.4511,-1.5369,0.2376,-0.1875
1781766001181,-0.5695,0.0568,-0.3935,-1.493,0.3702,-0.124
1781766001221,0.3868,1.3106,0.7848,-1.551,0.3971,-0.2694
1781766001261,-0.3784,-0.0295,-0.3225,-1.4807,0.2419,-0.2285
1781766001301,0.1695,0.2366,-0.2618,-1.3561,0.0556,-0.0208
1781766001341,-0.005,0.5852,-0.9177,-1.3586,0.2071,-0.1448
1781766001381,0.6893,0.235,-0.0275,-1.2889,0.0617,-0.2022
1781766001421,-0.0649,0.2917,-0.4769,-1.2889,0.0623,-0.3421
1781766001461,0.2067,0.016,0.1017,-1.2205,0.0611,-0.328
1781766001501,-0.5228,0.6253,-0.764,-1.0592,-0.0318,-0.2834
1781766001541,-0.7848,0.0322,-0.6035,-0.909,-0.0666,-0.1539
1781766001582,-0.8356,0.7633,-0.4342,-0.8442,-0.1411,-0.0544
1781766001621,-0.3675,0.5279,-0.3686,-0.7153,-0.1399,0.1008
1781766001661,0.1376,0.7444,-0.2428,-0.6823,-0.2028,0.1338
1781766001701,-0.244,0.1795,-0.9833,-0.6103,-0.171,0.0373
1781766001741,1.1676,-0.0598,0.8775,-0.6347,0.0397,0.0391
1781766001782,-0.2942,0.7108,-0.3633,-0.5253,-0.0519,-0.0244
1781766001821,-0.1827,0.5698,-1.2619,-0.4178,-0.1423,0.0006
1781766001861,0.0961,0.7158,-1.3179,-0.295,-0.1436,0.0629
1781766001901,0.2716,0.8108,-1.1126,-0.0318,-0.091,0.0043
1781766001941,-0.1381,1.1993,-1.4759,0.215,-0.0519,0.011
1781766001981,-0.3908,0.8745,-1.1248,0.4239,0.0513,0.0629
1781766002021,-0.2669,0.8067,-0.3693,0.6408,0.11,0.0959
1781766002061,-0.1056,1.032,-0.6218,0.8082,0.0568,0.1881
1781766002101,-0.7353,0.594,-0.2576,0.978,0.1014,0.2529
1781766002141,-0.3511,0.581,0.2144,1.1643,-0.0006,0.3103
1781766002181,-0.0171,0.2831,-0.2624,1.284,0.0269,0.2993
1781766002221,-0.1571,0.0585,0.2711,1.3366,0.0556,0.2272
1781766002261,0.3381,-0.2696,-0.143,1.5009,-0.0867,0.2077
1781766002301,-0.2519,-0.3923,-0.3941,1.551,-0.1704,0.1124
1781766002341,0.2063,-0.4693,0.46,1.5889,0.0092,0.1405
1781766002381,0.1413,-0.5213,0.0454,1.5632,-0.2303,0.0812
1781766002421,0.384,-0.4436,-0.0727,1.5314,-0.3244,-0.0421
1781766002461,0.0248,-1.0274,0.1796,1.3757,-0.2187,-0.1484
1781766002502,0.2158,-0.1283,0.9708,1.3708,-0.2975,-0.204
1781766002542,-0.6858,0.0919,0.0141,1.4398,-0.3323,-0.16
1781766002582,-0.3069,-0.18,0.2287,1.3861,-0.1252,-0.2779
1781766002621,-0.5399,-0.434,0.691,1.2865,0.1252,-0.3574
1781766002661,-0.1857,-0.1151,0.7367,1.3146,0.1607,-0.215
1781766002701,-0.1195,-0.3698,0.4226,1.3262,0.2382,-0.1326
1781766002741,0.3458,-0.5394,1.1708,1.3555,0.3012,-0.2114
1781766002781,0.8172,-0.2024,0.9677,1.328,0.2749,-0.317
1781766002821,0.8905,-0.2627,1.4248,1.2877,0.4019,-0.3665
1781766002861,0.5403,-0.5433,0.986,1.226,0.1436,-0.4545
1781766002901,-0.0663,0.3146,0.9597,1.2052,-0.0202,-0.3317
1781766002941,-0.6081,0.1233,0.8987,1.2675,0.014,-0.2779
1781766002982,-0.3134,-0.0079,1.0003,1.1319,0.1936,-0.2938
1781766003021,-0.1078,0.1663,0.662,0.9432,0.2248,-0.2053
1781766003061,0.7731,0.0901,0.541,0.9365,0.2535,-0.2211
1781766003101,0.3013,0.3859,0.9454,0.8473,0.0745,-0.2053
1781766003141,-0.0748,-0.2342,-0.3288,0.6689,-0.0324,-0.2346
1781766003182,0.9389,0.5745,1.0888,0.6212,-0.1002,-0.1961
1781766003221,-0.0874,-0.0549,0.4171,0.6506,0.0159,-0.2175
1781766003261,-0.5304,0.0433,0.7638,0.5339,0.1112,-0.2107
1781766003301,0.3196,-0.2208,0.2873,0.3861,0.0922,-0.0403
1781766003341,1.1327,-0.6939,-0.7049,0.0721,-0.0403,-0.0031
1781766003383,0.3132,0.4128,0.6026,-0.0721,-0.0061,-0.047
1781766003421,-0.3988,0.078,0.894,0.011,-0.1326,0.0586
1781766003461,0.5457,0.0036,0.5427,0.0788,0.0709,0.0299
1781766003502,0.3561,-0.0006,0.1034,0.077,0.1423,-0.0727
1781766003542,-0.0037,-0.0819,-0.0033,0.0348,0.0208,-0.0263
1781766003582,0.1231,-0.2564,-0.0395,-0.0006,-0.0134,0.0226
1781766003622,-0.0543,0.0027,0.1415,-0.044,0.0452,-0.0049
1781766003662,0.0675,-0.233,0.2798,-0.099,0.1252,0.0312
1781766003701,0.5905,-0.152,-0.2357,-0.1332,-0.0024,0.0324
1781766003741,0.0142,-0.1445,0.14,-0.2981,-0.0764,0.0709
1781766003782,0.1935,-0.6535,0.3834,-0.4239,-0.1735,0.121
1781766003821,0.0767,0.5747,0.9745,-0.6041,-0.0519,0.2071
1781766003861,0.857,0.2235,0.1706,-0.6225,-0.1197,0.157
1781766003901,-0.2265,0.1607,-0.5088,-1.1118,-0.3207,0.2376
1781766003942,0.5942,0.3133,-0.0337,-1.4856,-0.0922,0.2156
1781766003982,-0.7193,1.2459,-0.1262,-1.5589,-0.0635,0.4264
1781766004022,-0.7963,1.1181,-0.7514,-1.543,0.2724,0.5382
1781766004061,-0.428,-0.7945,0.5252,-1.5937,0.1045,0.4081
1781766004101,0.5655,2.4693,-0.903,-1.4178,-0.2059,0.4606
1781766004141,-0.1591,0.4286,0.4495,-1.5437,-0.2034,0.5571
1781766004182,-0.4255,1.0633,0.2301,-1.5033,-0.0696,0.237
1781766004221,0.3233,-0.0428,0.1147,-1.5821,-0.0702,0.2523
1781766004261,-0.6734,1.1332,-0.5279,-1.5992,-0.0745,-0.0238
1781766004301,-1.3829,0.2048,0.3097,-1.4459,-0.0134,0.1588
1781766004341,-1.5886,0.9767,-0.7147,-1.4618,-0.0861,0.2468
1781766004381,0.2398,0.5526,-0.7117,-1.4887,0.2254,0.1845
1781766004421,-0.9319,0.5701,-0.7287,-1.485,0.2303,0.1539
1781766004461,0.2867,0.6406,0.1105,-1.4978,0.2132,0.248
1781766004501,0.2994,0.2574,-0.0705,-1.3689,-0.1466,0.2089
1781766004541,0.1441,-0.2948,-0.5143,-1.3421,-0.0538,0.135
1781766004581,1.285,-0.21,-0.0695,-1.4013,0.182,-0.1045
1781766004621,0.4927,-0.0216,-0.0281,-1.3219,0.0098,-0.2926
1781766004661,0.2825,0.3278,-0.2678,-1.2364,-0.0312,-0.2743
1781766004701,0.0666,0.7202,-0.5346,-1.1625,0.0599,-0.1765
1781766004741,0.0299,0.9128,-0.3663,-1.0684,0.1442,-0.2456
1781766004781,-0.6229,0.9298,-0.2623,-0.9707,0.2095,-0.2767
1781766004821,-0.4676,0.9419,-0.2166,-0.8094,0.2749,-0.2352
1781766004861,-0.2218,0.6519,0.2465,-0.6872,0.1332,-0.1539
1781766004901,-0.5242,0.776,-0.2178,-0.5217,0.0696,-0.1045
1781766004941,0.3098,0.6817,0.0536,-0.4606,-0.0086,-0.0727
1781766004982,0.1823,0.3686,-0.4869,-0.4013,-0.0531,-0.0348
1781766005021,0.6349,0.3499,-0.445,-0.3372,-0.1081,-0.0312
1781766005062,-0.024,0.0791,-0.9203,-0.259,-0.0428,-0.0238
1781766005101,0.1433,0.1288,-0.7079,-0.2046,0.0495,-0.0031
1781766005142,-0.5244,0.0242,-0.8472,-0.0861,-0.0098,0.0538
1781766005181,-0.5464,0.3072,-1.3102,0.0067,0.0177,0.1533
1781766005221,-0.0922,0.6108,-1.1664,0.2114,-0.025,0.2193
1781766005261,0.0658,1.6908,-0.8751,0.3787,0.2462,0.2437
1781766005301,-0.2588,0.6536,-1.6786,0.6872,0.3757,0.1576
1781766005341,0.2269,-0.3439,-0.7992,0.9426,0.2419,0.2028
1781766005381,0.4907,-0.284,-0.1941,1.201,0.1112,0.1973
1781766005421,0.0914,-0.459,-0.4072,1.3549,0.0855,0.1454
1781766005461,0.0159,-0.4372,-0.2991,1.4838,0.0067,0.1277
1781766005501,-0.3584,-0.2634,0.2436,1.6701,-0.0654,0.1075
1781766005541,-0.3244,-0.3253,-0.3751,1.7807,-0.1051,0.0794
1781766005581,-0.2009,-0.2218,0.2147,1.843,-0.1093,0.0507
1781766005621,-0.6782,-0.3247,0.1498,1.9206,-0.2181,0.1155
1781766005661,-0.2403,-0.0387,0.2932,1.887,-0.3054,0.1374
1781766005701,0.2448,0.3154,0.223,1.8173,-0.2511,0.0415
1781766005741,0.2316,0.2875,0.4403,1.7287,-0.1943,-0.0892
1781766005781,0.3523,-0.1734,0.8594,1.6072,-0.0757,-0.2425
1781766005821,0.7165,0.1467,0.7847,1.4789,-0.0593,-0.3219
1781766005861,-0.0751,-0.0163,0.749,1.3897,-0.0098,-0.2828
1781766005901,0.0657,-0.2836,0.8961,1.3335,0.0238,-0.2822
1781766005941,0.1248,-0.0819,0.928,1.3549,-0.025,-0.2957
1781766005981,0.2422,-0.4781,1.4065,1.3518,0.0354,-0.2957
1781766006021,0.3852,-0.5176,1.1099,1.3671,0.0574,-0.2755
1781766006061,0.3176,-0.0177,1.044,1.2749,0.08,-0.3415
1781766006101,0.535,0.0923,1.2532,1.2639,0.0922,-0.3616
1781766006142,-0.0262,0.4698,0.7364,1.1154,-0.0373,-0.2334
1781766006182,-1.0297,0.0781,0.6942,1.0898,-0.0806,-0.1649
1781766006221,-0.5169,-0.0446,0.4971,0.8784,0.1075,-0.0073
1781766006262,1.2581,0.3384,-0.0007,0.6707,0.168,-0.0104
1781766006302,0.7123,-0.1631,0.2971,0.4869,0.1607,-0.1277
1781766006341,0.3892,-0.0818,0.8841,0.3641,0.1197,-0.1057
1781766006382,-0.3814,-0.1172,-0.197,0.3696,-0.0293,-0.0782
1781766006421,-0.8693,-0.5762,1.0634,0.3464,0.0531,0.0574
1781766006461,0.3722,0.2489,-0.1254,0.4716,0.0696,0.0611
1781766006501,-0.0929,-0.4865,-0.1739,0.3488,0.0812,-0.0238
1781766006542,-0.1578,0.0488,0.7643,0.2156,0.2266,-0.0086
1781766006581,0.1672,-0.1502,0.4247,0.1374,0.2071,0.0421
1781766006623,0.9844,-0.1872,0.3578,0.0556,0.1326,0.0391
1781766006721,0.9844,-0.1872,0.3578,0.0428,0.0874,-0.0049
1781766006741,0.2312,-0.2515,0.0036,0.0874,-0.1106,-0.0293
1781766006789,0.2312,-0.2515,0.0036,0.0782,-0.0996,-0.0684
1781766006821,-0.3505,-0.2399,-0.0509,0.0489,-0.077,-0.0397
1781766006861,-0.0533,-0.0445,0.1786,0.0409,-0.0073,-0.0171
1781766006901,-0.0973,0.0231,0.0877,0.0373,0.0281,-0.0428
1781766006941,0.1814,-0.1551,0.1092,0.0037,0.025,-0.0073
1781766006982,0.1004,0.0118,-0.0222,-0.0507,0.0098,-0.0116
1781766007021,0.2318,-0.1026,0.0201,-0.1222,-0.0538,0.0092
1781766007061,0.1789,-0.1817,-0.2,-0.2217,-0.0983,0.0061
1781766007101,-0.217,-0.112,0.2151,-0.3702,-0.1417,0.0855
1781766007141,0.4256,-0.0704,-0.1387,-0.4319,-0.2181,0.1246
1781766007182,-0.4052,0.421,0.7145,-0.5406,-0.1949,0.1558
1781766007221,0.2458,-0.1413,0.7935,-0.6414,-0.1503,0.1961
1781766007261,0.1412,0.7735,-1.8801,-1.2498,-0.4478,0.4746
1781766007301,-0.4157,0.029,-0.3684,-1.8222,-0.2755,0.6267
1781766007341,0.3205,2.3818,0.8368,-1.5663,-0.3128,0.5534
1781766007381,0.019,1.052,0.2716,-1.9774,0.0568,0.5174
1781766007422,-0.7575,0.9955,0.2938,-1.8112,-0.1729,0.6628
1781766007461,1.3157,2.0994,0.8949,-1.8112,0.1338,0.6274
1781766007515,0.0099,1.7696,0.0124,-1.8302,-0.4985,0.3048
1781766007542,-0.6387,-0.8068,0.6219,-1.6451,-0.1521,0.4496
1781766007581,0.0551,0.4288,-0.7383,-1.8381,-0.0916,0.3238
1781766007622,-1.3416,0.9925,-0.271,-1.7984,0.317,0.0513
1781766007661,-1.3708,0.1509,-0.4386,-1.6005,0.0238,0.2505
1781766007701,0.3104,0.1494,-0.3629,-1.5852,0.2462,0.2743
1781766007741,0.3709,0.3459,-0.7029,-1.5082,0.1979,0.1155
1781766007781,-0.3445,0.2092,-0.4308,-1.5088,0.102,0.036
1781766007821,0.0949,-0.2261,-0.7162,-1.5302,0.1026,-0.0055
1781766007861,-0.1299,0.3164,-0.6225,-1.3775,0.16,0.0055
1781766007902,0.4746,-0.1715,-1.3349,-1.3897,0.0672,0.0324
1781766007941,-0.0485,-0.0989,-0.8079,-1.295,0.1839,-0.0336
1781766007981,-0.5286,0.5386,-1.5096,-1.1545,0.2523,-0.0684
1781766008021,-0.0502,0.6697,-1.0953,-1.0721,0.1741,-0.1051
1781766008061,-0.7281,0.6953,0.1274,-0.923,0.157,-0.1081
1781766008101,-0.1214,0.733,-0.5418,-0.7398,0.1148,0.0476
1781766008141,-0.0075,0.7199,-0.4981,-0.5644,-0.0727,0.1503
1781766008181,0.0363,0.6507,-0.8817,-0.4349,-0.0385,0.1454
1781766008221,0.4875,0.4278,-0.6188,-0.3622,-0.011,0.0654
1781766008261,0.3624,0.3712,-0.4102,-0.2663,-0.0648,0.0257
1781766008301,-0.1944,0.1631,-0.7818,-0.1943,-0.0593,0.0189
1781766008341,0.2608,0.3615,-0.6038,-0.124,-0.0403,0.0263
1781766008381,0.0488,0.3129,-0.654,-0.055,-0.055,0.0012
1781766008421,0.0493,0.2095,-1.0398,0.0886,-0.0153,-0.0061
1781766008461,0.5866,0.0853,-1.3367,0.2199,-0.0403,0.0183
1781766008501,-0.0876,0.7005,-1.5248,0.5125,0.0342,-0.036
1781766008541,-0.2412,0.4702,-1.3987,0.7007,0.1063,-0.025
1781766008581,0.0207,0.1503,-0.7514,0.9847,0.0874,-0.0147
1781766008621,0.1028,0.2085,-0.8782,1.1594,0.077,-0.0476
1781766008661,-0.6768,0.2513,-0.6642,1.394,0.0147,-0.0568
1781766008701,-1.0054,-0.1964,-0.3054,1.5834,-0.0709,-0.0159
1781766008741,-0.4048,-0.0162,0.2218,1.7245,-0.0843,0.0574
1781766008781,-0.6332,-0.0884,-1.0566,1.8381,-0.2132,0.0709
1781766008821,0.1636,0.0554,-0.3463,1.8033,-0.1967,0.0116
1781766008861,-0.1361,0.1181,-0.3924,1.7703,-0.1368,-0.0495
1781766008902,0.2334,-0.1273,0.976,1.7055,-0.0385,-0.1497
1781766008941,0.3783,0.3205,0.3465,1.722,-0.1814,-0.3525
1781766008981,-0.1321,-0.3972,0.9046,1.6225,-0.0373,-0.4105
1781766009021,-0.6516,-0.2968,0.5889,1.6041,0.1967,-0.4252
1781766009061,-0.9918,-0.0278,0.9846,1.6182,0.3537,-0.3457
1781766009101,0.6999,0.2329,1.3511,1.697,0.4337,-0.4246
1781766009141,0.3951,0.4762,0.7951,1.6854,0.2395,-0.3677
1781766009181,-0.1627,0.3134,1.4126,1.6506,0.3299,-0.4862
1781766009221,-0.2327,0.2255,1.6093,1.6133,0.4643,-0.5003
1781766009261,1.2107,-0.2107,1.2221,1.7935,0.339,-0.6518
1781766009302,0.2158,-0.2775,2.1454,1.8894,0.4453,-0.507
1781766009342,-0.9421,1.9456,0.0578,1.8277,0.2834,-0.3213
1781766009381,-1.5684,2.7183,-0.6414,1.2865,0.3213,-0.2413
1781766009422,0.3099,2.3021,-1.69,0.8583,0.606,-0.2413
1781766009461,-1.4147,-3.9823,-2.3577,0.1344,0.9591,-0.5968
1781766009501,0.9337,-2.7536,-1.6833,-0.4777,0.157,-0.0336
1781766009542,0.4091,-0.0786,0.9825,-0.8723,-0.8803,0.3696
1781766009581,0.4738,-0.3838,0.3879,-0.8564,-0.7672,0.2376
1781766009621,-1.4243,-0.4833,-0.0397,-0.7996,0.3659,0.204
1781766009661,-1.6721,-1.84,-0.9931,-0.7782,0.7306,0.2334
1781766009701,0.0481,-1.7374,-1.1099,-0.9933,0.2896,0.4966
1781766009741,1.3043,0.4907,-0.2561,-1.2969,-0.3476,0.5571
1781766009781,3.0945,0.299,1.4443,-1.1729,0.8619,0.1936
1781766009821,1.0947,0.7316,2.0178,-1.0055,0.4685,0.5058
1781766009862,-2.02,0.3538,1.0137,-0.3299,0.2468,0.4954
1781766009901,-0.1061,1.184,1.3393,-0.3042,0.6121,0.4948
1781766009942,0.7641,1.1109,2.0231,0.1436,1.1338,0.5406
1781766009981,0.052,1.2173,1.441,0.7196,1.0366,0.2669
1781766010021,0.7993,-0.173,-0.1287,0.6475,0.8283,0.2327
1781766010061,-0.0728,-1.6493,-0.3995,0.7074,1.2181,-0.102
1781766010102,0.7416,0.7021,1.8469,0.347,0.7984,0.0342
1781766010141,2.4447,2.6412,2.5857,0.4917,-0.6035,0.7001
1781766010181,-1.3751,-1.4647,0.1997,1.1478,1.3451,-1.2339
1781766010221,1.0242,2.3486,0.6125,0.7776,2.1441,-1.2071
1781766010261,6.6604,-3.4992,3.3206,0.0421,-0.5247,-0.0483
1781766010301,-2.0077,-1.8531,0.0326,1.0104,0.1087,-0.5443
1781766010342,-0.0056,1.3677,1.3818,0.3134,-0.6555,-0.226
1781766010381,-0.1811,-0.6738,0.0481,0.3042,-0.1552,-0.0788
1781766010421,0.5404,-1.3243,-0.9007,0.033,-0.5516,-0.0709
1781766010461,0.2664,1.6751,-0.1154,0.5394,0.1301,0.0825
1781766010501,2.1775,-0.3483,0.9302,-0.5162,-0.2896,0.1698
1781766010541,2.3038,-2.4508,0.5798,0.4136,-0.5327,0.4038
1781766010582,1.5633,-3.0282,0.198,-0.0916,-2.6414,1.463
1781766010622,0.7911,1.0614,0.0398,-0.3812,-2.5711,1.0763
1781766010661,1.5986,0.3969,0.4157,0.1619,-2.5052,0.8919
1781766010701,-1.0779,0.2526,-0.8163,0.0421,-3.5418,1.1704
1781766010741,-1.1151,0.2082,-2.4265,0.3665,-3.1136,2.0947
1781766010781,1.5891,-2.5223,0.1088,-0.0385,-1.9994,1.3066
1781766010821,-5.4727,1.2226,3.2259,-0.0061,1.0849,2.4997
1781766010861,-1.8824,-0.4339,0.3714,0.5705,-0.2926,2.6866
1781766010901,1.4124,-1.8638,-1.2908,1.0855,-0.3164,1.73
1781766010941,-1.9472,1.4202,-1.2367,1.7434,-3.4764,0.077
1781766010981,1.1185,-2.9133,-2.0241,2.7593,-1.5748,0.1686
1781766011021,0.7725,-5.1952,-8.9864,5.4562,-4.3561,-2.3054
1781766011061,-8.1984,-2.6692,-6.239,4.1466,-8.1966,-3.9413
1781766011101,-14.5116,0.2513,0.3282,1.6878,-6.0708,-1.3299
1781766011141,-16.9166,-1.2102,3.8898,2.2474,-2.2498,2.2345
1781766011181,-12.7715,-2.4638,8.6238,3.1649,-2.5088,6.5479
1781766011221,1.011,-9.1646,2.3471,4.5839,-4.6487,9.3737
1781766011261,6.318,-9.9594,-3.8033,6.736,0.3128,9.3756
1781766011301,9.7614,-16.1293,-3.411,3.992,2.7452,10.3444
1781766011341,7.7413,-7.5534,-2.9316,2.8424,-6.7287,6.9846
1781766011381,8.8249,-4.2604,-7.9703,2.7953,-6.8014,4.2003
1781766011421,4.3066,-2.0741,-4.4123,1.9988,-1.8534,0.2138
1781766011461,-1.7975,-1.3716,-2.2416,0.6683,-1.8943,-0.2816
1781766011501,1.4694,-1.5576,1.1909,1.1387,1.35,-0.4404
1781766011541,-3.5516,0.895,2.5411,1.9346,2.0336,-1.5736
1781766011581,-3.3004,0.3656,2.0725,1.9065,1.2474,-0.3421
1781766011621,-1.0425,-0.9662,-1.2146,1.9737,0.8412,0.0195
1781766011661,-0.6595,0.1062,-1.7704,0.9096,0.8155,0.1784
1781766011701,0.9966,-1.0273,-0.7971,0.2126,1.0263,-0.157
1781766011741,1.0039,-1.0265,-0.5457,-0.0513,0.7819,-0.4074
1781766011781,-1.0712,0.147,-0.381,0.1741,0.8577,-0.3238
1781766011821,1.0575,-1.1551,0.5651,0.0055,-0.8998,0.2254
1781766011861,1.6299,-1.2645,-1.1844,0.3531,-0.7898,-0.226
1781766011901,-0.4978,-1.0704,-2.5133,0.3164,0.0794,-0.3097
1781766011941,-0.2907,-1.2014,-1.2582,-0.2633,-0.2248,-0.0446
1781766011981,-0.6094,-1.3558,-0.3564,-0.0843,-0.4875,0.2388
1781766012021,-0.2182,-1.3604,-2.2325,0.4557,-0.2792,0.4765
1781766012061,-0.3048,-1.81,-1.7445,0.3806,0.7049,0.5534
1781766012102,-0.0626,-2.1867,0.5129,0.3696,0.0892,0.1955
1781766012141,-0.5018,-1.6814,-0.6403,0.6713,-0.5803,0.1949
1781766012181,-0.5239,-1.5664,-1.5722,0.8338,-0.1747,0.3366
1781766012221,-1.4619,-1.2216,-0.9778,0.7159,-0.135,0.372
1781766012261,-1.2653,0.085,-0.6535,0.6481,-0.3916,0.391
1781766012301,-0.172,-0.4977,-1.3652,0.7508,-0.0061,0.6329
1781766012341,1.0798,0.6667,-0.8876,0.405,0.0819,0.1069
1781766012381,-1.1409,0.1501,0.9683,-0.1503,-0.1723,-0.2615
1781766012421,0.1404,0.7575,0.9892,0.3684,-0.0458,-0.4386
1781766012461,-1.0387,1.4168,-0.2187,0.4233,0.4826,-0.3244
1781766012501,0.0329,0.4838,0.3216,0.0006,-0.0654,-0.1051
1781766012541,0.5478,0.9648,1.0386,-0.295,-0.0715,-0.4319
1781766012581,-0.3768,1.0288,1.7109,-0.0202,0.1863,-0.3109
1781766012621,0.1002,1.33,0.6627,-0.0959,-0.0794,-0.0886
1781766012661,0.6196,1.2721,1.3634,-0.2443,0.2578,-0.0043
1781766012701,0.4653,1.4124,2.3056,-0.3867,0.2553,-0.1857
1781766012741,0.8517,1.9608,2.9885,-0.1619,-0.2706,-0.2645
1781766012781,0.3469,2.6318,1.9827,0.0977,0.0086,-0.3122
1781766012821,-0.0687,2.2569,1.6503,0.1093,0.2144,-0.1442
1781766012861,0.052,2.0267,1.6396,-0.2969,-0.3531,-0.0373
1781766012902,0.683,2.012,2.4208,-0.1778,-0.0415,-0.069
1781766012941,-0.2735,1.3237,2.625,0.0367,0.1741,-0.1808
1781766012981,0.1161,1.1763,1.9684,0.0293,-0.1998,-0.2602
1781766013021,-0.4918,0.8127,1.3698,-0.1552,-0.3793,-0.4044
1781766013061,-1.0929,0.9988,1.2636,0.0232,0.1069,-0.1851
1781766013101,-0.9559,-0.013,0.5984,0.1093,0.022,-0.0208
1781766013141,-1.2617,0.6721,-0.5636,-0.2462,-0.3677,0.077
1781766013181,-0.3698,-0.3518,-0.6986,-0.5785,-0.1417,0.3512
1781766013221,0.7616,-1.4222,0.0492,-0.3806,0.27,0.2731
1781766013261,0.554,-1.4161,0.2399,-0.223,-0.1075,-0.35
1781766013302,0.2724,-0.3642,-0.8222,-0.2645,-0.2486,-0.4435
1781766013341,-0.5622,-0.0238,-1.2006,-0.2376,0.2101,-0.3152
1781766013381,0.3253,-0.3852,-0.1162,-0.3286,0.515,-0.1381
1781766013421,0.3889,-0.4993,-0.1773,-0.5113,-0.0702,-0.3018
1781766013461,0.1389,-0.5061,-0.0932,-0.5009,-0.1539,-0.1643
1781766013501,-0.4589,-0.164,0.1681,-0.0177,0.08,0.1564
1781766013541,0.3532,-0.7035,-1.5401,-0.0819,0.1918,-0.0312
1781766013581,-0.1298,-0.256,-0.6464,-0.3128,0.0855,0.0409
1781766013622,0.7555,-0.9127,0.3364,-0.1839,-0.1362,-0.0104
1781766013661,0.874,-1.1415,-0.2373,0.1093,-0.8729,-0.2016
1781766013701,-0.405,-0.6736,-1.7767,0.1613,-0.5412,-0.1405
1781766013741,1.46,-0.8069,-1.4557,0.0104,0.5296,-0.1295
1781766013781,0.4163,-1.0221,0.5703,-0.0654,0.2633,-0.4221
1781766013821,-1.5486,-1.4423,-0.4316,0.3549,0.7844,-0.2902
1781766013861,-0.0088,-0.2808,-0.6032,0.65,1.3537,0.1826
1781766013901,-0.8534,-1.8067,-1.6278,0.2547,0.4691,0.5559
1781766013941,1.5325,0.057,-0.6331,-0.3152,-0.5223,0.799
1781766013982,-0.1579,-1.3455,-0.6155,-0.1998,0.0507,-0.1258
1781766014022,-0.9237,-0.5693,-1.3643,-0.2095,0.306,0.0037
1781766014061,0.9073,0.3628,0.2942,-0.7019,0.0648,0.0006
1781766014101,0.0572,0.0135,0.2904,-0.1649,-0.3903,0.0043
1781766014141,0.031,0.2712,-0.6357,-0.2309,-0.4203,-0.0874
1781766014181,-0.0055,0.5849,0.0787,-0.5217,-0.6249,-0.1075
1781766014221,0.5931,0.4098,0.154,-0.6066,-0.3763,0.0727
1781766014261,-0.23,0.551,1.7677,-0.2065,0.2382,0.146
1781766014301,-0.0262,0.1832,0.5982,0.0849,-0.1765,0.0764
1781766014341,1.4532,0.5525,0.0443,-0.1607,-0.35,-0.0312
1781766014381,0.0699,0.1043,-0.2415,-0.0043,-0.1906,-0.0641
1781766014421,0.6054,-0.2141,-0.8614,0.1148,0.0586,-0.0354
1781766014461,0.3736,-0.4285,-1.5065,-0.0189,0.1607,-0.1655
1781766014501,-0.2243,-0.3761,-0.8795,-0.3561,-0.0489,-0.1955
1781766014542,-0.1528,-0.7929,-0.653,-0.1161,0.0214,-0.0244
1781766014581,0.6515,-1.246,-0.797,0.2505,0.2016,-0.0024
1781766014621,0.3501,-1.2926,-1.0007,0.2309,-0.0831,-0.193
1781766014662,0.4516,-1.8565,-0.9599,0.259,-0.358,-0.2865
1781766014701,0.0447,-1.552,-1.4218,0.3586,-0.5217,-0.3506
1781766014741,-0.7885,-1.1239,-2.2646,0.4264,-0.4007,-0.0812
1781766014781,0.3387,-2.2572,-2.0033,0.2572,-0.9487,-0.1857
1781766014821,0.1836,-0.6991,-2.4965,0.328,-0.7453,-0.2456
1781766014861,0.7706,-1.7645,-3.0885,0.5602,0.0782,-0.3176
1781766014901,-0.5944,0.2234,-2.8176,-0.0892,-0.0916,-0.6866
1781766014942,-4.1199,0.9744,-0.2661,-0.3219,0.16,0.0489
1781766014981,-0.8872,-0.0765,-0.4486,-0.2046,0.9041,1.0281
1781766015022,-0.0202,0.3457,2.8429,-0.1509,0.4875,-0.0892
1781766015062,-0.8143,0.1223,3.009,0.9963,1.394,0.1967
1781766015101,-0.0893,-0.9921,-3.5852,1.3732,3.1918,0.7214
1781766015141,1.4889,-0.115,0.2348,-0.0635,1.6267,-0.4624
1781766015181,-2.5766,1.8841,3.3446,-0.3335,1.2565,-0.2169
1781766015222,-1.3733,-1.7679,3.3216,0.8351,1.573,1.0843
1781766015262,-1.9184,1.1019,-0.1138,0.0373,0.8699,0.9126
1781766015301,0.0398,1.845,1.5314,-0.3726,0.3916,0.8033
1781766015342,2.3727,0.8043,2.1407,0.0238,1.0721,0.8741
1781766015383,-0.8331,1.9434,1.6855,0.0892,1.0843,0.4832
1781766015421,1.5694,1.3065,0.7477,0.0782,1.6756,-0.3745
1781766015462,-0.8056,2.6046,2.8909,-0.5357,0.4789,-1.0067
1781766015502,-1.0017,2.3467,3.9201,-0.0544,0.4417,-0.4753
1781766015542,-2.1422,2.2728,4.608,0.7831,1.1649,-0.1717
1781766015583,-2.0171,1.9411,1.8328,1.1881,1.573,0.3885
1781766015621,-1.0022,1.2214,-0.3202,-1.7776,1.4484,-1.0745
1781766015661,-2.0099,1.1714,3.7757,-1.3341,0.5596,-0.6732
1781766015701,-2.0788,-0.5817,1.5424,0.3916,1.022,-0.5082
1781766015743,-1.1993,-0.9405,-2.7058,-0.8644,0.9566,-1.0043
1781766015781,-2.273,-1.5373,0.0295,-1.9688,0.6616,-1.0513
1781766015821,-3.1819,-0.6154,2.7968,-0.5907,1.2028,-0.4979
1781766015862,-1.0141,-1.7052,-1.1054,0.391,1.3775,0.0788
1781766015902,-0.6541,-1.5231,-0.2935,-0.3659,0.9426,-0.8809
1781766015942,0.2433,-1.0613,-0.3309,-0.722,1.3512,-0.4838
1781766015982,1.0194,-2.3997,-0.9671,-1.0965,1.1154,-0.642
1781766016021,1.2718,-3.1363,-0.7236,-0.5553,1.9988,-0.7178
1781766016061,1.593,-0.1893,-1.7537,0.2517,2.8686,-0.4423
1781766016102,4.742,-3.0341,0.539,0.1723,0.515,-1.1515
1781766016142,4.2383,-3.4435,-0.5542,1.2443,0.8259,-1.2223
1781766016182,4.1082,-2.8092,-1.3893,1.6218,0.5669,-1.2376
1781766016222,3.9051,-5.6263,-0.8821,0.1264,3.0226,-2.5962
1781766016262,2.4165,-2.2142,-0.0443,0.8656,2.7849,-3.135
1781766016303,2.4165,-2.2142,-0.0443,0.7178,1.6616,-3.5088
1781766016341,-0.8496,-2.687,-0.3968,-0.0843,2.3286,-2.7782
1781766016382,1.8834,-1.7104,3.3431,1.8595,2.2834,-2.9939
1781766016421,-3.0293,-0.6933,-1.3995,0.8082,1.1264,-2.6255
1781766016461,-1.9923,-0.3099,2.9728,1.8674,1.3268,-1.967
1781766016501,-0.0143,-1.056,-0.5508,2.2382,1.5571,-2.7489
1781766016541,-7.9844,0.4556,-1.9434,0.9957,-0.0293,-2.2938
1781766016581,-9.9476,2.0624,0.1374,1.0757,-0.226,-0.8803
1781766016621,-7.6319,2.9359,-2.0515,1.2969,0.4783,0.1765
1781766016661,-4.3412,2.0843,-7.4044,-0.6316,-0.857,0.3818
1781766016701,8.333,0.2783,-2.5948,0.0214,0.4991,0.4087
1781766016741,8.333,0.2783,-2.5948,0.5473,1.5956,-0.7391
1781766016781,1.8643,-0.776,0.1253,0.9139,1.631,-0.6878
1781766016822,1.5947,-0.9668,0.8541,1.069,-0.08,-0.0819
1781766016861,1.2858,1.5633,1.1917,0.0159,-0.6781,-0.0079
1781766016901,-2.5914,-1.4157,3.2702,-0.8057,-2.2547,-0.394
1781766016941,0.4326,-1.0571,-1.5962,-1.4856,-2.5058,-0.5009
1781766016982,1.1016,-0.7603,0.5639,-1.4392,-1.025,2.2535
1781766017065,1.1016,-0.7603,0.5639,-0.865,-0.0996,1.562
1781766017101,5.0057,2.7877,-0.0569,0.1698,0.0275,2.4832
1781766017142,3.4553,3.4904,-0.8621,0.7666,0.576,2.259
1781766017181,8.1293,-0.7305,0.5508,0.9291,0.4294,0.722
1781766017221,-2.4395,-1.6567,-1.5416,0.7825,0.6182,-0.1173
1781766017261,3.0974,-10.5303,2.0689,2.0562,0.9114,0.3616
1781766017301,-4.9851,-5.746,-2.6364,1.6634,0.7123,-0.3561
1781766017342,-0.8313,-0.9656,-0.5631,1.2724,-0.0623,-0.0996
1781766017381,-2.5125,-2.1078,1.6988,0.0189,0.0452,-0.4276
1781766017421,-2.7169,-2.8274,-2.2201,0.1979,-0.6548,-1.606
1781766017461,-0.3282,1.377,-1.4081,0.7721,-0.3091,-1.2932
1781766017501,4.2417,1.9235,0.6958,0.5724,0.0501,-0.6329
1781766017541,0.2678,4.0748,2.7861,0.5889,0.5999,-0.4191
1781766017581,0.4983,2.9035,-0.1917,-1.1301,-0.179,-0.5223
1781766017621,1.8147,-5.2424,-0.7303,-0.8467,1.7275,-1.0947
1781766017661,3.5785,-2.6554,-2.9236,-0.0757,1.2798,-0.8106
1781766017701,0.8692,-1.0975,0.5138,0.0898,1.46,-1.6218
1781766017741,9.1832,1.3476,1.7687,-0.8234,0.3146,-2.5388
1781766017781,-4.5896,5.1402,-2.8612,-0.7795,0.1356,-2.733
1781766017821,-0.7929,0.9596,0.8132,-1.1234,-1.6408,-2.5473
1781766017861,-5.2163,-7.2829,0.6644,-0.4765,0.8882,-0.7648
1781766017901,-0.3842,-2.7819,1.3843,-0.755,-0.0354,0.5675
1781766017941,-0.7083,-3.6323,1.5324,-0.879,-1.1472,1.3879
1781766017981,0.7052,-1.561,1.0872,-1.0653,-0.5962,2.0146
1781766018021,3.8118,9.5267,0.2253,-0.9303,-0.102,0.7055
1781766018061,-0.0515,-1.4193,-0.4297,-0.6371,0.2938,0.5932
1781766018105,0.5235,-0.4915,1.0165,-1.1851,0.3073,0.5541
1781766018141,0.5539,0.5264,0.5368,-0.8546,0.1851,0.7434
1781766018181,-1.0381,0.6084,0.4392,-0.6408,0.2981,0.7159
1781766018221,-0.2854,0.8331,-0.6129,-0.7575,0.3354,1.1582
1781766018262,1.8533,-0.4867,-0.4493,-1.0849,0.3451,1.0702
1781766018301,0.0723,1.25,0.5446,-0.8027,0.259,0.8534
1781766018341,-0.2113,1.6573,-0.3723,-0.6048,0.4661,0.843
1781766018382,-0.274,0.773,-0.4417,-0.7104,0.6005,0.9041
1781766018421,-1.3082,-0.5846,-1.0062,-0.7844,0.3207,1.0134
1781766018462,-0.4929,-0.3795,-1.8176,-0.733,0.168,0.9963
1781766018501,-1.628,-0.2795,-2.8606,-0.4618,0.295,0.6481
1781766018541,-1.0462,-0.9835,-2.341,-0.3457,0.4533,0.4972
1781766018581,-2.2508,0.7292,-2.5807,-0.1717,-0.0018,-0.0086
1781766018636,-2.2508,0.7292,-2.5807,-0.0018,-0.1051,-0.0525
1781766018661,-1.4731,-0.321,-1.759,0.4856,-0.2816,-0.515
1781766018701,-0.9183,-0.6805,-1.6561,0.639,-0.2822,-0.6603
1781766018742,-0.0021,-0.3078,-0.5352,0.5956,-0.2627,-0.7801
1781766018781,-0.2542,-0.8223,-0.4744,0.5443,-0.3176,-0.8803
1781766018821,0.3137,0.0177,-0.3919,0.4911,-0.3335,-0.9529
1781766018862,-0.1398,-0.9119,0.1639,0.5076,-0.2743,-1.0415
1781766018901,0.2983,-0.6307,-0.1101,0.5907,-0.4105,-1.0715
1781766018941,-0.4773,0.024,0.2939,0.5205,-0.3665,-1.1924
1781766018981,0.0847,-0.4106,0.1306,0.3225,-0.4911,-1.0727
1781766019021,0.6644,-0.0666,-0.2323,0.5003,-0.3299,-1.1594
1781766019061,-3.2502,2.7174,1.0826,0.3861,-0.7636,-1.314
1781766019101,-0.3779,1.2188,0.3832,0.7947,-0.4979,-0.372
1781766019141,2.2968,-1.449,0.2221,0.8803,-0.0446,-0.4038
1781766019181,1.8217,-0.6265,0.323,0.6353,-0.5143,-1.2175
1781766019222,-0.7544,-0.1764,0.6764,0.6707,-1.0146,-1.2065
1781766019262,0.5815,-0.9641,-0.1079,1.8204,0.4319,-0.0464
1781766019301,3.2121,0.3133,1.3497,0.9224,-0.3745,-0.3176
1781766019342,4.4966,1.0009,1.3787,0.2114,-0.6616,-0.5461
1781766019381,0.1927,-0.6704,2.388,0.7544,-1.113,-0.7227
1781766019423,0.2837,0.6663,0.4605,1.1411,-0.8118,-0.8363
1781766019461,-0.1116,-0.1917,-0.0567,0.6976,-0.7214,-0.573
1781766019501,-1.0394,0.6689,0.2237,0.4478,-0.6506,-0.5528
1781766019541,-3.267,0.781,0.1855,0.7636,-0.0562,-0.4191
1781766019581,-0.7732,-0.4131,0.1333,0.3488,-0.0189,-0.1014
1781766019621,3.2261,-0.6337,-0.5726,1.1124,0.9352,-2.6231
1781766019661,-1.6855,1.4796,-1.2743,-0.0898,1.1637,-2.5821
1781766019701,4.6503,2.5763,2.4862,-0.0635,0.0843,-0.1472
1781766019741,1.2101,-2.8461,-0.1684,0.7807,0.5815,-2.4881
1781766019781,-3.4962,2.0111,0.8812,-0.2547,1.3018,-3.2736
1781766019822,1.3723,-0.3942,0.0049,0.3293,0.5516,-0.0299
1781766019862,-1.6989,11.8687,1.7652,0.193,0.4814,-0.0739
1781766019901,1.5605,-1.6232,0.5865,0.7141,0.697,-0.3622
1781766019941,-2.4328,-0.4473,0.6311,0.0415,1.8295,-2.0091
1781766019981,2.8119,-5.9345,-0.7776,1.0489,3.2223,-3.248
1781766020021,4.6727,-2.3396,-0.0791,-0.0202,1.5424,-2.2779
1781766020061,1.2032,-1.7773,-0.3533,-0.1362,0.3751,-0.8931
1781766020103,1.8563,-1.781,0.692,-0.6793,-0.204,0.5217
1781766020142,-3.0319,4.331,-2.8364,-0.4588,-0.5895,0.35
1781766020183,0.6346,0.5851,0.4454,-0.7196,-0.3519,0.3659
1781766020222,0.1493,0.4594,2.0197,-0.6164,-0.1961,0.3604
1781766020262,0.5046,0.6586,0.528,-0.7086,-0.2963,0.3048
1781766020304,0.7478,-0.7372,-2.2786,-1.0311,-0.2694,0.4429
1781766020343,0.7478,-0.7372,-2.2786,-1.4251,-0.2334,0.4142
1781766020383,1.3596,1.5077,0.0421,-1.1832,0.306,0.2492
1781766020422,-1.0902,-1.3687,-0.4959,-1.3977,0.2651,0.3708
1781766020463,0.932,1.7418,1.3708,-1.5198,0.4453,0.5644
1781766020502,0.932,1.7418,1.3708,-1.6567,0.3519,0.631
1781766020543,0.3522,1.0114,0.4365,-1.6267,0.0403,0.4154
1781766020581,-0.5912,-0.5526,1.3368,-1.5437,-0.1374,0.5822
1781766020621,0.2284,-0.2701,0.2457,-1.4936,0.0696,0.7184
1781766020663,0.9558,0.5469,0.1429,-1.4429,-0.2376,0.7446
1781766020702,0.4921,-0.7041,0.3696,-1.3714,0.0648,0.4667
1781766020742,-0.4048,-0.2454,-0.3617,-1.5235,0.0336,0.3329
1781766020782,0.9634,0.557,-0.637,-1.4349,0.1429,0.4282
1781766020822,-0.3231,-0.1707,-0.5501,-1.4997,0.0312,0.2382
1781766020863,-0.1934,0.3562,-0.2341,-1.4209,0.1607,0.1313
1781766020902,-0.1934,0.3562,-0.2341,-1.4416,0.0794,0.1295
1781766020942,1.0861,1.306,-0.6478,-1.4429,0.3684,0.1362
1781766020983,-0.9764,-0.3618,-0.7446,-1.3427,0.0782,-0.1179
1781766021022,-0.0855,0.6216,-0.7399,-1.2058,0.1765,0.044
1781766021064,-0.4867,0.0242,-1.7059,-1.1674,0.2566,-0.1552
1781766021104,0.9586,0.4506,-0.4466,-1.0336,0.292,-0.1448
1781766021142,0.9586,0.4506,-0.4466,-0.9701,0.16,-0.2724
1781766021183,-0.5875,0.3228,-0.7599,-0.5815,0.1093,-0.0147
1781766021223,0.4282,-0.0171,-0.5548,-0.2877,-0.1008,0.1374
1781766021263,0.2159,0.2227,-1.8129,-0.0055,-0.1765,0.16
1781766021304,0.163,0.2545,-1.462,0.1332,0.0385,0.1032
1781766021344,-0.0806,0.0794,-2.3958,0.4184,0.1454,0.0397
1781766021384,0.2356,-0.0576,-2.1049,0.5015,0.1686,-0.0012
1781766021423,0.2356,-0.0576,-2.1049,0.5412,0.1124,-0.0012
1781766021463,-0.0101,-0.0535,-0.757,0.8827,0.0898,0.0177
1781766021505,0.4351,0.4664,-1.405,0.9817,0.1148,-0.0648
1781766021542,0.2247,1.2311,-0.4324,1.0476,0.0287,-0.2786
1781766021582,0.2247,1.2311,-0.4324,1.0476,0.0287,-0.2786
1781766025412,0.2247,1.2311,-0.4324,1.0476,0.0287,-0.2786
1781766025419,0.8465,-1.8412,0.155,0.5253,-0.0189,-0.0434
1781766025458,0.9356,-0.7202,-5.4175,0.5357,0.2071,-0.0415
1781766025501,1.2747,-1.2287,-5.5069,0.3079,0.1668,-0.0452
1781766025538,1.4372,-1.523,-5.9598,-0.0623,-0.0031,0.022
1781766025578,0.9759,-1.2558,-5.1685,-0.1527,-0.0165,0.0128
1781766025621,1.1176,-0.4729,-4.3714,0.022,0.069,0.0012
1781766025659,0.6634,-0.4483,-4.5732,0.091,0.0385,0.0079
1781766025698,1.4594,-0.5033,-3.8583,0.1167,-0.1081,-0.036
1781766025740,0.7712,-0.5092,-4.2719,0.0403,-0.1075,-0.077
1781766025780,-0.1097,-0.5223,-3.6664,-0.0531,-0.047,-0.0024
1781766025821,0.3516,-0.4236,-3.2977,-0.1069,-0.0061,0.0385
1781766025860,0.5016,-0.012,-3.1492,-0.193,0.0305,0.0147
1781766025900,0.071,-0.1457,-2.33,-0.2645,-0.0037,0.0782
1781766025939,0.4273,0.095,-1.8258,-0.4111,-0.0556,0.1497
1781766025981,0.7711,-0.1993,-1.6376,-0.5528,-0.0183,0.1051
1781766026019,0.129,0.6202,-1.2657,-0.8167,-0.3134,0.2743
1781766026061,0.2184,1.475,-2.1088,-1.1698,-0.4789,0.504
1781766026100,-0.7389,-0.6982,-2.6822,-1.6952,-0.1032,0.6579
1781766026140,0.3158,2.2835,-0.207,-1.664,0.4276,0.5125
1781766026180,1.3072,2.8472,-1.4491,-2.0751,0.0929,0.4288
1781766026219,-0.7717,1.1046,-1.6155,-1.8283,-0.0819,0.6506
1781766026260,2.3028,-0.0913,0.9505,-1.7208,0.0037,0.8265
1781766026300,2.2928,3.264,-0.1354,-1.7049,-0.2755,0.1924
1781766026339,1.0812,0.8412,-0.8874,-1.7795,-0.3751,0.1429
1781766026380,-0.4431,0.535,-0.8825,-1.7471,-0.0397,0.1686
1781766026421,-0.707,2.2409,-1.6439,-1.7953,-0.0452,0.2254
1781766026461,-1.4309,2.4501,-1.0987,-1.7697,0.2694,0.1723
1781766026499,-0.0186,1.3789,-1.2035,-1.7355,0.2938,0.0751
1781766026540,0.0923,0.8624,-1.3048,-1.6958,0.1454,0.0617
1781766026583,-0.0166,1.1393,-1.6512,-1.7892,0.2334,0.0275
1781766026618,0.1624,0.4852,-1.5102,-1.6994,0.2077,-0.0593
1781766026662,0.1662,0.2264,-1.1916,-1.7251,0.2902,-0.2633
1781766026698,0.8279,0.6638,-0.9364,-1.6414,0.179,-0.3201
1781766026739,0.0914,0.7245,-1.6874,-1.4838,-0.1545,-0.4093
1781766026779,-1.4598,0.9946,-1.7451,-1.3292,0.2242,-0.328
1781766026819,0.7403,2.0216,-0.6167,-1.0226,0.1301,-0.2847
1781766026858,-0.1613,1.8158,-0.7406,-0.8088,-0.0202,-0.1967
1781766026902,-0.7062,1.8633,-0.5911,-0.6029,0.1521,-0.0263
1781766026941,0.2035,1.9964,-0.6488,-0.4117,0.0898,0.0159
1781766026979,0.0767,1.5478,-0.2319,-0.2975,-0.0024,0.0715
1781766027019,0.487,1.5796,-0.5739,-0.2034,-0.0874,0.0672
1781766027058,0.0492,1.5875,-0.4604,-0.0922,-0.0195,0.0733
1781766027098,0.0492,1.5875,-0.4604,-0.0922,-0.0195,0.0733
1781766027304,0.0492,1.5875,-0.4604,-0.0922,-0.0195,0.0733
1781766027338,0.4419,-0.7806,0.1661,1.4875,0.1826,0.2407
1781766027379,0.7217,-0.3289,-0.1102,1.6573,-0.179,0.2896
1781766027418,0.4502,-0.1394,-0.175,1.6854,-0.1845,0.2224
1781766027460,0.1274,0.097,-0.3595,1.689,-0.1704,0.1399
1781766027499,0.1133,0.2533,0.6563,1.7068,-0.2382,0.0684
1781766027540,0.4912,0.0099,-0.5017,1.617,-0.2248,-0.0415
1781766027578,-0.2121,-0.1515,0.7605,1.5797,-0.2205,-0.1545
1781766027620,-0.2342,0.6013,0.5952,1.5681,-0.1869,-0.2975
1781766027658,-0.3488,0.2268,0.7057,1.4917,-0.0904,-0.3867
1781766027700,-1.2302,0.3918,0.6649,1.4349,-0.0153,-0.3054
1781766027739,-0.1671,1.1203,1.1211,1.394,-0.0354,-0.1808
1781766027779,-0.1779,1.2241,0.0378,1.3952,-0.069,-0.1826
1781766027820,-0.2375,0.1307,0.2105,1.336,-0.0904,-0.2266
1781766027861,-0.1057,0.2678,0.388,1.2901,-0.044,-0.2535
1781766027900,-0.5874,-0.3239,-0.0402,1.3836,-0.1075,-0.212
1781766027939,-1.4925,-1.0468,0.3573,1.405,0.033,-0.2395
1781766027981,0.1903,0.4059,0.6957,1.4532,0.2089,-0.1191
1781766028020,1.5942,0.5797,0.529,1.303,0.2633,-0.1387
1781766028060,2.08,0.5396,0.5049,1.0403,0.0214,-0.2474
1781766028099,0.0117,0.4242,0.0237,0.9847,-0.0568,-0.4423
1781766028140,-0.9922,-0.6991,0.2373,0.7831,0.2896,-0.3512
1781766028180,-0.41,0.3424,1.2589,0.7795,0.4514,-0.1808
1781766028220,1.4509,0.4201,0.2712,0.8125,0.6243,-0.2541
1781766028262,0.3033,-0.6505,0.5802,0.5253,0.5046,-0.4111
1781766028299,0.3129,-0.5558,0.2552,0.4123,0.099,-0.2706
1781766028339,0.5695,-0.0395,-0.4212,0.1973,-0.102,0.0171
1781766028379,0.7775,0.034,0.364,0.0672,-0.3085,-0.0721
1781766028419,-0.0915,-0.1588,0.9169,0.066,-0.0434,-0.0904
1781766028459,0.2557,-0.1028,0.3977,0.0922,-0.0513,-0.0055
1781766028500,0.1139,0.0235,0.0085,0.1069,0.0012,-0.0519
1781766028539,0.1787,-0.0086,-0.1451,0.0122,-0.0348,-0.0012
1781766028578,-0.0076,-0.0816,-0.0278,-0.0379,-0.0073,0.0128
1781766028620,0.3539,0.1396,0.6059,-0.0281,0.0635,0.0275
1781766028660,0.5561,0.0233,0.2949,0.0397,0.0122,-0.0153
1781766028699,0.1817,-0.3412,-0.1213,-0.0501,0.033,-0.0159
1781766028740,0.2013,-0.3363,-0.6546,-0.2352,-0.1539,0.0501
1781766028781,-0.2285,-0.0461,-0.3633,-0.4203,-0.2572,0.0678
1781766028819,0.0338,-0.3433,0.2924,-0.6487,-0.2834,0.1662
1781766028860,0.6536,0.4332,-0.402,-1.0244,-0.587,0.2315
1781766028899,-0.9884,0.8623,-0.7249,-1.5192,-0.5822,0.2871
1781766028941,-0.8568,1.8658,0.7252,-2.0464,-0.3195,0.4765
1781766028980,1.3618,0.3256,1.2611,-2.0837,-0.0605,0.6463
1781766029021,-0.2358,0.9717,1.1828,-1.4545,-0.2816,0.5058
1781766029061,0.3864,0.1481,1.8266,-2.0818,0.0709,0.3329
1781766029101,-0.0026,1.2555,-0.3865,-1.6536,-0.5058,0.3537
1781766029140,1.1902,0.9089,0.0712,-1.6732,-0.2743,0.5198
1781766029180,-1.1253,-0.6727,-0.3833,-1.5889,-0.3561,0.4362
1781766029219,-1.5465,0.472,1.0054,-1.5443,0.3268,0.3671
1781766029260,0.5802,1.243,-1.0084,-1.6383,0.2737,0.3916
1781766029299,-0.3684,0.9606,-0.5827,-1.6176,0.1521,0.1674
1781766029341,0.5343,-0.0328,-0.3974,-1.7782,0.1594,0.1631
1781766029380,-0.2161,0.7702,-0.62,-1.7947,0.157,0.0409
1781766029419,0.3726,0.0524,-0.528,-1.9652,0.4942,-0.2162
1781766029460,0.4931,0.4902,-1.3717,-1.9151,0.1765,-0.2437
1781766029501,-1.0519,0.1029,-1.2267,-1.8711,0.0812,-0.3445
1781766029541,-0.4326,0.4782,-0.7524,-1.7226,0.0837,-0.2786
1781766029579,-0.1702,0.5374,-0.5014,-1.5589,0.1295,-0.2627
1781766029619,-0.3815,0.3015,-0.4312,-1.3616,0.1594,-0.2474
1781766029658,0.7362,1.2816,-0.6213,-1.1252,-0.0195,-0.1484
1781766029699,-0.4496,0.6703,-1.0866,-0.9401,0.0617,-0.0745
1781766029739,0.3886,0.7491,-0.4838,-0.8497,0.1326,-0.0336
1781766029781,-0.1963,0.3147,-1.2659,-0.6017,0.0318,-0.0635
1781766029821,-0.3557,0.6967,-1.4357,-0.3848,-0.0202,-0.0342
1781766029860,-0.4223,0.73,-1.7313,-0.1503,-0.0159,0.0281
1781766029900,0.3455,1.1122,-1.198,0.0812,-0.0263,0.1051
1781766029939,-0.0969,0.8404,-1.9298,0.4905,-0.0379,0.1307
1781766029979,0.0568,0.865,-1.3295,0.7672,0.0874,0.1662
1781766030019,-0.0556,1.1209,-1.2955,1.0586,0.2175,0.1008
1781766030061,-0.7182,0.7271,-1.1313,1.2688,0.4979,-0.0727
1781766030099,0.093,-0.4365,0.1709,1.4496,0.4484,-0.0599
1781766030138,0.3344,-1.0172,0.2018,1.6799,0.0898,0.0874
1781766030180,-0.4742,-0.7091,-0.7599,1.7074,-0.0495,0.16
1781766030220,-0.354,-0.6548,-0.1382,1.7239,0.0434,0.2297
1781766030260,0.0495,-0.2813,-0.0819,1.7868,-0.113,0.2309
1781766030298,-0.1133,-0.404,0.309,1.7605,-0.1545,0.1582
1781766030341,-0.1503,-0.1505,0.1391,1.7752,-0.2181,0.1576
1781766030381,0.4269,-0.0778,0.349,1.7764,-0.2132,0.121
1781766030422,-0.0305,0.0906,0.9385,1.6854,-0.1558,-0.1087
1781766030462,-0.1399,0.1958,0.5523,1.6109,-0.0544,-0.2547
1781766030499,-0.4614,0.1613,0.6163,1.504,0.0641,-0.1778
1781766030539,-0.1921,0.6883,1.0996,1.4783,0.1081,-0.1509
1781766030579,-0.529,0.4474,0.6813,1.463,0.0452,-0.1393
1781766030620,-0.2401,-0.0492,0.3994,1.4716,0.066,-0.1491
1781766030659,0.2675,-0.0238,1.0611,1.4453,0.2315,-0.2004
1781766030702,0.8517,-0.2658,1.4434,1.3683,0.1979,-0.2156
1781766030742,1.1749,0.1448,1.097,1.4374,0.1631,-0.3183
1781766030781,0.5473,-0.3995,1.4522,1.3757,0.1155,-0.4276
1781766030821,-0.3505,0.3792,1.0222,1.339,0.0037,-0.2401
1781766030858,-1.2438,1.0069,0.7381,1.4142,-0.0776,-0.1594
1781766030902,-1.6333,-0.2787,0.0832,1.292,0.0379,-0.077
1781766030943,-0.1844,0.3176,0.2008,1.0269,0.2718,0.0599
1781766030979,1.4954,0.5162,-0.0639,0.8204,0.3427,-0.0476
1781766031019,1.7964,1.0563,1.189,0.6964,0.4618,-0.1668
1781766031059,-0.2938,-0.0616,0.5836,0.6946,0.4019,-0.1582
1781766031100,0.0246,-0.6161,0.7571,0.328,0.2645,-0.0764
1781766031140,-0.109,-1.7146,-1.5728,-0.1637,0.0092,0.113
1781766031180,0.3881,0.2058,0.2181,-0.2059,0.0043,0.0709
1781766031220,0.3049,0.6116,0.9858,-0.0244,0.1112,0.0165
1781766031259,-0.9899,-0.4324,0.8893,0.0367,-0.0238,0.11
1781766031299,0.9718,0.2701,0.5137,0.0574,-0.0348,0.1106
1781766036483,0.9718,0.2701,0.5137,0.0574,-0.0348,0.1106
1781766036515,-2.4356,-17.8132,-2.8294,1.0281,0.1607,-0.2285
1781766036555,-3.1911,-17.7876,-2.0998,1.0116,0.1326,-0.1014
1781766036596,-3.2671,-17.7661,-1.4037,1.0385,0.0898,0.0006
1781766036638,-3.1512,-17.3466,-0.6314,1.044,0.0641,0.0293
1781766036677,-3.0992,-17.179,-0.2334,0.8968,0.1906,-0.0128
1781766036716,-3.7789,-17.0869,0.8189,0.7007,0.1613,-0.1985
1781766036755,-3.8425,-16.917,1.8963,0.4777,0.2822,-0.0391
1781766036797,-2.1431,-19.6558,2.0798,0.3421,0.4313,0.0483
1781766036836,-2.7866,-18.0412,0.6405,0.0397,0.3415,0.0635
1781766036877,-2.8514,-16.7746,1.3669,-0.204,-0.1723,0.0721
1781766036916,-3.409,-17.5914,2.8906,-0.0623,-0.0721,-0.0403
1781766036955,-4.2364,-16.8879,2.3939,0.0654,-0.1833,-0.0257
1781766036998,-3.8817,-17.192,2.249,0.1216,-0.0837,-0.0049
1781766037038,-3.8862,-16.648,2.4966,0.1454,-0.0269,-0.0415
1781766037078,-4.5996,-16.6894,2.0444,0.0354,-0.0385,-0.044
1781766037116,-4.7016,-16.2497,2.5165,-0.0947,-0.0788,-0.0092
1781766037157,-4.8833,-15.4364,3.0097,-0.1515,-0.1393,0.0342
1781766037196,-4.6881,-15.8263,2.5998,-0.1283,-0.1026,0.047
1781766037237,-5.5473,-14.9668,2.863,-0.2272,-0.0159,0.0678
1781766037275,-5.0993,-14.9221,3.9396,-0.2566,-0.0012,0.2089
1781766037317,-4.6031,-13.8458,2.5242,-0.2682,-0.1374,0.1497
1781766037356,-5.9362,-14.2346,1.7009,-0.6732,-0.1912,0.0898
1781766037395,-6.5865,-13.0591,2.8596,-1.036,-0.2804,0.1649
1781766037434,-6.842,-12.6287,0.5357,-1.4978,-0.5644,0.7483
1781766037482,-9.6253,-14.2047,2.7345,-1.9597,-0.3018,0.7288
1781766037514,-5.0395,-11.3969,0.8725,-1.1539,-0.1264,0.6707
1781766037555,-6.5388,-12.6581,-1.1759,-1.8815,0.1985,0.5705
1781766037597,-7.1929,-13.3085,-0.2049,-1.5382,-0.4826,0.303
1781766037635,-6.8087,-10.8591,-2.4946,-1.5595,-0.1148,0.3848
1781766037676,-9.3144,-13.2524,-2.6968,-1.4759,-0.2388,0.3616
1781766037715,-9.6643,-12.3359,-3.2893,-1.5516,-0.124,0.2156
1781766037755,-8.5332,-12.0679,-4.0505,-1.4044,0.1759,0.3219
1781766037797,-8.0877,-10.0467,-5.0216,-1.4783,0.1338,0.2505
1781766037838,-7.0238,-11.2314,-5.3555,-1.6243,0.4453,-0.1258
1781766037876,-8.8257,-10.2797,-6.269,-1.4752,0.0849,-0.1423
1781766037916,-9.7559,-10.095,-6.8536,-1.4948,0.1912,-0.0971
1781766037956,-8.9948,-9.592,-7.3506,-1.3182,0.1881,0.0861
1781766037996,-8.1034,-9.2258,-7.368,-1.2156,0.2303,0.1533
