timestamp_ms,acc_x,acc_y,acc_z,gyro_x,gyro_y,gyro_z
1781766141816,0.0,0.0,0.0,-0.0031,1.1264,0.0794
1781766141856,2.0138,0.0179,-2.7515,-0.0031,1.1264,0.0794
1781766141897,2.3987,-0.4698,-3.4446,1.5088,4.78,-1.3317
1781766141937,2.496,-0.0563,-4.3403,1.5913,5.7275,-2.0855
1781766141976,2.1028,0.3559,-2.4133,2.802,6.6792,-2.8735
1781766142016,0.1162,-0.5311,-2.2184,2.2455,5.306,-4.4153
1781766142057,-5.1319,-0.9115,0.0239,2.4551,3.4929,-4.1863
1781766142097,-6.5337,-1.3595,-1.6301,2.3451,2.2852,-3.5956
1781766142137,-8.5111,0.9366,-1.7987,2.3305,1.3292,-2.9285
1781766142176,-7.6082,2.2212,-4.3237,1.6652,0.9694,-2.2003
1781766142217,-13.0614,4.5209,-3.6423,1.493,0.6408,-1.6072
1781766142257,-9.0643,4.8915,-7.4517,0.5742,-0.4801,-0.1863
1781766142296,-4.7667,4.9534,-8.3808,-0.317,-0.1796,0.5828
1781766142336,-6.8485,6.8735,-0.7071,0.5565,1.0751,1.8069
1781766142377,-2.4955,3.7521,-1.2951,0.6585,1.0091,1.7086
1781766142417,3.3823,2.8161,0.7504,0.8002,0.0886,0.9322
1781766142457,7.3932,-0.472,-2.045,0.7776,0.3903,-0.1906
1781766142497,3.3361,1.1164,-1.7316,0.9475,0.3971,-0.3995
1781766142537,-1.0194,2.0395,-4.7138,0.4533,0.8693,0.1045
1781766142577,-3.0327,4.0909,2.2022,0.3384,0.8296,0.5815
1781766142616,-2.5113,-0.8975,-0.9672,0.1906,-0.2193,-0.2596
1781766142656,4.6542,0.0393,-6.9927,-0.2437,1.6463,-0.9108
1781766142696,-3.4855,-0.6545,1.551,-1.6591,-0.6487,-1.6677
1781766142736,-3.523,0.3985,-3.054,-1.5266,-0.1582,-0.7471
1781766142776,-2.1294,0.3043,-1.9341,-0.314,-0.3482,0.1698
1781766142816,-1.671,-0.2801,-1.9916,0.9578,0.7098,0.1228
1781766142857,-0.7086,0.6202,-0.3354,0.9713,-0.9566,0.901
1781766142896,24.5444,-15.871,10.0685,1.7795,1.6463,-0.7856
1781766142937,7.9748,1.5179,-5.4614,-0.6585,0.6475,-1.5595
1781766142976,3.2344,-1.223,0.5636,-0.3366,0.4331,-2.2743
1781766143016,2.3866,1.6978,-1.1135,-1.6799,-0.9108,-2.4429
1781766143056,-4.3472,-1.0829,-1.6765,-1.7972,-0.7746,-0.8589
1781766143096,-1.1705,2.6672,-2.9407,-1.6835,0.3018,1.3451
1781766143137,4.0981,-1.1041,0.34,-1.5302,-0.7141,-0.0415
1781766143176,-3.3395,3.7409,-0.8851,-1.3708,0.4074,0.5174
1781766143216,-4.5328,1.3004,-0.8157,-0.2083,0.7141,0.9914
1781766143257,-1.7359,2.7576,0.0006,1.3531,1.0452,0.1717
1781766143296,2.8276,2.0399,-2.135,-0.9426,-0.4374,-0.1918
1781766143337,0.9556,-0.8004,0.2484,-1.0599,-0.3421,-0.0287
1781766143376,3.3639,2.2466,-2.2636,-0.1906,0.5198,-0.1093
1781766143416,-0.0574,0.1744,-1.1913,-0.1142,0.8277,0.6261
1781766143457,1.8407,1.906,-1.4192,-0.4606,0.1765,1.0623
1781766143496,1.7584,2.03,-1.6458,-0.6347,0.3018,0.7068
1781766143536,-1.6337,1.4959,-1.3999,-0.8607,0.2663,0.8094
1781766143576,-0.5735,1.7439,-1.0083,-0.1484,0.4985,1.3402
1781766143616,0.6527,5.4657,-1.1115,-0.223,0.6041,1.1606
1781766143656,0.1006,1.8318,-0.6374,-0.1912,0.4038,0.755
1781766143696,0.3807,0.6749,-1.0816,-0.4527,0.2413,0.9047
1781766143736,-0.227,1.1622,-1.6218,-0.4887,0.2651,0.6946
1781766143776,-0.7657,1.1194,-1.7323,-0.4643,0.3916,0.5669
1781766143816,-0.6741,0.9991,-1.6184,-0.537,0.4313,0.4362
1781766143857,-1.0668,1.8611,-1.5713,-0.4765,0.2205,0.3812
1781766143896,-0.7149,1.3108,-1.5639,-0.3879,0.0177,0.4313
1781766143936,-0.6082,1.2761,-1.9276,-0.2706,-0.0128,0.256
1781766143977,-1.1867,1.0232,-2.7417,-0.1185,0.1289,0.1014
1781766144016,0.0811,2.9748,-2.2707,-0.3738,-0.226,-0.2242
1781766144056,-0.6422,0.6365,-2.3285,0.3763,-0.1649,-0.0825
1781766144096,-0.9345,1.727,-1.7836,0.4679,-0.2358,-0.2749
1781766144137,-0.2552,1.2262,-1.8467,0.4074,-0.2981,-0.4911
1781766144176,-0.1342,1.3907,-1.861,0.5308,-0.1637,-0.6842
1781766144216,-0.3212,1.7019,-1.4507,0.4062,-0.1582,-0.901
1781766144256,-0.4857,1.7445,-1.2748,0.4178,-0.2926,-1.1539
1781766144296,0.0777,2.0885,-0.7249,0.6029,-0.6225,-1.3543
1781766144337,-0.1319,2.3796,-1.1715,0.3005,-0.6237,-1.215
1781766144376,0.2111,2.1195,-0.5405,0.5687,-0.416,-1.157
1781766144416,0.0524,2.6676,-0.7744,1.088,-0.4795,-1.5901
1781766144456,-0.1626,3.6605,-0.5205,0.4618,-0.1161,-1.5583
1781766144496,0.9256,-2.8207,-0.6639,0.2798,-0.5308,-1.2339
1781766144537,1.8537,1.9604,-1.5028,0.6249,0.5388,-0.8809
1781766144577,-0.5205,1.9735,0.1904,1.1136,0.391,-1.3103
1781766144616,0.3854,3.9852,-0.5518,1.7226,-0.1491,-2.1142
1781766144656,2.3809,0.8899,-0.8549,0.2889,0.0421,-1.46
1781766144696,-1.2581,-2.2687,-0.9843,1.146,0.7685,-1.0599
1781766144736,0.0737,2.9609,0.0894,1.7178,0.1979,-0.7532
1781766144776,1.8945,2.8324,0.6203,1.4661,0.1491,-1.3341
1781766144816,2.2962,1.5672,0.3571,0.7746,-0.1961,-1.7361
1781766144856,-2.3984,-0.7814,-0.2908,1.3812,0.5541,-1.4752
1781766144897,0.6012,-1.1791,0.0137,1.3537,-0.2395,-0.5034
1781766144936,-0.5207,1.8702,-0.7534,1.1252,-0.022,0.0965
1781766144976,-1.3267,-0.1985,-0.7607,1.0476,0.361,-0.4734
1781766145016,1.591,1.2693,-1.2224,0.8442,0.868,-1.3555
1781766145057,-0.0701,0.8721,-0.4301,0.7074,1.077,-1.5705
1781766145096,-0.4853,1.6023,-0.4253,0.5846,1.3305,-2.0733
1781766145137,-0.2077,-1.2383,-0.9044,0.1955,0.8344,-2.2987
1781766145177,-2.074,-0.6732,-1.328,-0.1796,0.7251,-1.4447
1781766145216,-0.8689,-1.7603,0.1355,-0.0434,0.1014,0.0586
1781766145257,0.8505,-1.1325,-0.3687,0.0513,0.2413,0.19
1781766145296,1.238,-2.449,-0.3532,-0.1448,-0.245,0.2773
1781766145336,1.4892,3.1871,-1.8593,-0.1155,-0.3775,0.0996
1781766145376,1.1347,0.9653,-1.698,-0.1234,-0.3775,-0.1216
1781766145416,-0.3133,-0.3216,-1.1813,-0.1625,-0.2804,-0.1026
1781766145456,-1.1862,0.2462,-0.4463,-0.1497,0.0641,0.0098
1781766145496,-0.3673,-0.6938,-1.045,-0.3445,0.1759,0.0611
1781766145537,0.5286,-1.0139,-1.2932,-0.4844,0.339,0.1527
1781766145576,0.0419,0.3986,-0.7377,-0.6658,0.0556,0.3598
1781766145616,-0.1414,0.8347,1.0505,-0.598,-0.0153,0.4563
1781766145656,0.8175,0.9211,0.7577,-0.7581,-0.2401,0.4808
1781766145696,1.1373,2.1823,-1.0884,-1.3952,-0.8265,0.4453
1781766145736,3.1684,0.9096,-1.2127,-1.777,-0.2749,0.4569
1781766145776,-0.3861,1.095,-2.3305,-2.584,-0.438,0.4013
1781766145816,-0.535,1.5313,0.0039,-2.0586,-0.1051,0.5553
1781766145856,0.5483,1.5362,1.6329,-1.8766,-0.2767,0.5608
1781766145896,-1.8341,1.2536,0.657,-1.5443,-0.8473,0.9291
1781766145936,-0.0042,-2.5565,-0.539,-1.5748,-0.3299,0.6194
1781766145977,-1.1508,0.9804,-1.2675,-1.4685,-0.0476,0.5082
1781766146017,-0.7253,0.7549,-0.4143,-1.4368,0.2437,0.5131
1781766146057,-0.256,1.2219,-0.5839,-1.3592,0.0464,0.4319
1781766146096,-1.1039,1.0877,-0.6795,-1.2138,0.055,0.4722
1781766146136,-0.672,0.8757,-0.8271,-1.3292,0.3299,0.4429
1781766146176,-0.698,1.0776,-0.701,-1.2627,0.2327,0.38
1781766146217,0.2368,0.5944,-0.2762,-1.3091,0.1985,0.347
1781766146256,1.1065,0.5901,-0.3621,-1.3329,-0.0544,0.0861
1781766146296,-0.7315,-0.3043,-0.4059,-1.2999,0.014,0.1197
1781766146337,0.2305,0.0754,-0.8089,-1.2346,0.0556,-0.0721
1781766146376,-0.8614,0.3992,-1.4042,-1.1179,0.0226,-0.146
1781766146416,-0.7547,0.5174,-1.6177,-0.9713,0.0092,-0.1038
1781766146456,-0.1348,0.1648,-0.3352,-0.8925,0.0904,-0.1191
1781766146496,0.6414,0.2613,-0.4399,-0.7831,0.1087,-0.1362
1781766146536,-0.2426,0.8512,-0.3917,-0.7043,0.1814,-0.1368
1781766146576,-0.427,0.9586,-0.3177,-0.5406,0.1448,-0.1197
1781766146616,-0.5425,0.7651,-0.8656,-0.3451,0.077,-0.0122
1781766146656,-0.2797,0.733,-1.3666,-0.0611,0.0293,0.0507
1781766146696,-0.646,1.1273,-1.9156,0.2529,0.1155,0.0079
1781766146737,-0.097,0.7943,-1.5941,0.6689,0.0202,-0.036
1781766146776,-0.6531,0.512,-1.75,1.0531,0.0843,-0.0257
1781766146816,-0.0588,0.3296,-1.5172,1.3781,0.0617,-0.0794
1781766146857,-0.433,-0.0533,-0.8684,1.6915,-0.0635,-0.0684
1781766146896,-0.3146,-0.4531,-0.9124,1.8051,-0.0202,-0.0843
1781766146937,0.2027,-0.2641,-0.3405,1.8399,-0.0953,-0.0983
1781766146976,0.4591,-0.2484,-0.0363,1.7935,-0.2272,-0.1869
1781766147016,0.2452,0.1084,-0.0482,1.6646,-0.1784,-0.2615
1781766147056,0.361,0.2024,0.645,1.5944,-0.1387,-0.3946
1781766147096,0.1708,0.5729,0.4733,1.4795,-0.0733,-0.4074
1781766147137,0.0854,-0.0213,0.546,1.3225,0.0544,-0.4459
1781766147176,0.2712,-0.1299,0.7236,1.2462,0.0721,-0.4789
1781766147217,0.383,0.0079,1.1452,1.2388,0.0519,-0.4606
1781766147256,0.0271,-0.1865,0.6943,1.2071,0.0232,-0.4759
1781766147296,-0.1758,0.0251,1.0001,1.2083,0.1387,-0.4948
1781766147337,0.4427,0.0697,1.0143,1.3213,0.1112,-0.4783
1781766147376,-0.0087,0.0437,0.7014,1.3305,0.0929,-0.3635
1781766147416,0.1892,0.1722,0.5161,1.2853,0.204,-0.2718
1781766147456,-0.5618,-0.6662,0.7535,1.2199,0.1857,-0.2541
1781766147496,1.1496,0.7958,0.765,1.0989,0.204,-0.2743
1781766147538,0.4051,0.6591,0.857,0.9835,0.2022,-0.2669
1781766147576,-0.4486,-0.1066,1.0684,1.0159,0.0354,-0.1845
1781766147617,0.1283,0.4152,0.9638,0.9786,0.0831,-0.1326
1781766147656,0.4781,-0.0335,-0.3518,0.8302,0.1613,-0.3103
1781766147696,0.1277,0.4364,0.4918,0.73,0.0159,-0.347
1781766147738,-0.0549,0.9916,0.7985,0.5327,-0.0043,-0.1979
1781766147776,-0.1351,-0.6682,-0.2144,0.1936,-0.1491,-0.0263
1781766147816,0.1085,-0.6839,-0.3297,-0.1148,-0.2908,0.0324
1781766147856,-0.4293,0.0578,0.7827,-0.1808,-0.1967,0.0293
1781766147897,0.0598,0.006,1.1601,0.0519,0.1454,-0.0263
1781766147936,0.5851,-0.1426,0.635,0.0672,0.0012,-0.0403
1781766147976,0.8271,-0.0637,-0.0592,-0.0965,-0.2523,-0.0183
1781766148016,0.1093,-0.2027,0.1705,-0.1765,-0.2425,-0.0165
1781766148057,-0.7284,0.1001,0.4566,-0.201,-0.0983,-0.0171
1781766148096,-0.1133,-0.1148,-0.0526,-0.2963,-0.0629,0.1093
1781766148137,0.3945,0.0367,-0.2562,-0.4123,-0.1045,0.1368
1781766148177,0.0894,-0.2955,-0.7453,-0.5773,-0.1662,0.1552
1781766148216,-0.4033,0.9266,0.5535,-0.9597,-0.11,0.3018
1781766148256,-0.0194,0.6099,-0.9853,-1.2547,-0.1539,0.4997
1781766148296,-0.4268,0.9553,0.5949,-1.0537,0.0134,0.5712
1781766148337,1.163,0.135,-0.8383,-1.2266,0.0611,0.5705
1781766148376,-0.7646,0.4689,0.0658,-1.3048,0.1649,0.7001
1781766148416,0.0592,0.1061,-0.2971,-1.3726,0.2132,0.5742
1781766148456,1.851,1.7811,-0.2802,-1.4759,-0.1381,0.4496
1781766148496,-0.0586,0.8642,0.4225,-1.2077,-0.3995,0.6048
1781766148537,0.186,-0.0767,0.2112,-1.3115,-0.3519,0.6805
1781766148576,-0.86,-0.2338,0.0791,-1.2327,-0.033,0.4612
1781766148617,-0.2342,-0.0827,0.1533,-1.2663,0.1393,0.3195
1781766148656,-0.9197,0.3324,-0.0155,-1.1008,0.0776,0.5651
1781766148696,-0.1209,0.3542,0.037,-1.0531,0.0189,0.3842
1781766148737,-0.7347,-0.139,-0.2063,-1.011,0.0556,0.4264
1781766148777,-0.5879,-0.2505,-0.1399,-0.9096,0.055,0.4795
1781766148816,1.1182,0.4213,-0.7585,-1.0763,0.0782,0.3225
1781766148856,0.3349,0.4917,-0.4961,-1.0165,-0.0421,0.1002
1781766148897,-0.4082,0.5751,-1.0351,-1.1148,0.2279,-0.0147
1781766148937,0.0945,0.3482,-0.3508,-1.1784,0.3158,-0.124
1781766148976,-0.2153,0.5962,-0.0395,-1.0599,0.124,-0.1002
1781766149016,-1.0242,0.3257,0.065,-0.9902,0.1735,0.0024
1781766149056,-0.3073,0.3735,-0.3974,-0.9542,0.0544,0.0092
1781766149096,0.3756,0.1779,-0.3237,-0.8515,-0.0079,-0.0458
1781766149136,0.1656,-0.0246,-0.4414,-0.7703,-0.0452,-0.0525
1781766149176,-0.1841,-0.0356,-1.215,-0.7159,-0.0519,-0.0696
1781766149216,1.6384,0.969,-0.9016,-0.5883,-0.0336,-0.0672
1781766149256,-0.1893,0.3057,-1.4147,-0.4545,0.0464,-0.0446
1781766149296,-0.6678,0.0967,-1.6885,-0.1881,-0.0177,-0.0293
1781766149336,-0.368,0.3559,-1.1534,0.1148,-0.0208,0.0434
1781766149376,-0.3626,0.2749,-2.0158,0.3696,0.1399,0.0128
1781766149416,0.2367,0.2085,-1.4903,0.6506,0.0257,-0.0776
1781766149456,-0.4876,-0.2704,-1.4811,0.9639,0.0947,-0.0892
1781766149496,-0.3826,-0.4892,-1.4358,1.1765,0.0806,-0.08
1781766149536,-0.794,0.0821,-0.976,1.4319,-0.077,0.0476
1781766149576,-0.0702,0.4359,-1.4355,1.4734,-0.0287,-0.0086
1781766149616,0.3038,0.2974,-0.5906,1.5082,-0.036,-0.1381
1781766149656,0.4094,0.245,-0.1793,1.4954,-0.077,-0.245
1781766149696,0.434,0.4137,0.0802,1.4612,-0.025,-0.3482
1781766149737,0.0712,0.3081,0.559,1.3891,0.0073,-0.4264
1781766149776,-0.0094,-0.0331,0.4928,1.2963,0.0794,-0.394
1781766149816,0.1661,0.293,1.0279,1.2474,0.0929,-0.4649
1781766149856,-0.1045,0.4794,1.1789,1.1863,0.1381,-0.4801
1781766149896,0.3641,-0.1934,0.6778,1.1368,0.0831,-0.4398
1781766149937,0.3541,0.4308,0.8221,1.1448,-0.0458,-0.4679
1781766149976,-0.0882,-0.1963,0.5256,1.0977,0.0055,-0.4551
1781766150016,0.4397,-0.0595,0.4631,1.0947,0.0641,-0.5498
1781766150056,0.1446,0.1404,0.7341,1.113,0.0831,-0.471
1781766150096,-0.0242,-0.0204,0.7236,1.1325,0.0977,-0.3073
1781766150138,-1.0711,-0.1577,0.7264,1.047,0.2236,-0.1491
1781766150176,0.0535,0.3756,0.5835,1.0525,0.3189,-0.1344
1781766150216,-0.0892,0.0246,0.7765,0.9352,0.4172,-0.1539
1781766150256,0.6832,-0.2102,0.8129,0.8601,0.3451,-0.1863
1781766150296,0.5791,0.255,1.0186,0.8809,0.124,-0.1808
1781766150338,0.1212,0.0872,1.1401,0.931,0.2132,-0.2315
1781766150376,0.4617,0.2077,0.7364,0.9413,0.1179,-0.2535
1781766150416,0.803,0.3147,0.2016,0.8125,0.0079,-0.3848
1781766150456,0.4022,1.4045,0.6228,0.5418,0.0299,-0.3763
1781766150496,-0.5363,-0.5971,-0.0021,0.1319,-0.1491,-0.1142
1781766150538,-0.4263,-0.9505,-0.1787,-0.0299,-0.2077,0.0751
1781766150576,0.3462,0.2941,0.0719,0.0128,-0.1417,-0.08
1781766150616,-0.6976,-0.1509,-0.0943,0.0421,-0.0391,-0.0312
1781766150656,0.4243,-0.3226,0.3876,0.0336,-0.1802,0.0031
1781766150696,0.4012,0.0238,0.0676,-0.0238,-0.0489,-0.0336
1781766150736,-0.6178,-0.057,-0.1493,-0.2144,0.0507,0.0617
1781766150776,-0.4435,-0.2595,-0.3874,-0.4979,0.0336,0.2651
1781766150816,0.1626,-0.8793,-0.4359,-1.0244,-0.2224,0.5076
1781766150857,1.0262,-0.0769,0.0544,-1.5937,-0.5424,0.6933
1781766150897,0.0083,2.2412,0.3146,-2.08,-0.3439,1.0421
1781766150937,0.9187,3.0274,0.6666,-1.6616,-0.0959,0.5608
1781766150976,-0.8296,0.331,0.6156,-1.6842,0.5412,0.4636
1781766151016,-0.0493,-1.549,0.5217,-1.9578,-0.1277,0.9493
1781766151056,1.0186,1.2733,1.0878,-1.5363,-0.2315,0.6249
1781766151096,0.2356,1.0226,0.3524,-1.5559,-0.3671,0.6329
1781766151137,-0.8526,-0.9126,-0.4985,-1.5345,-0.394,0.675
1781766151176,-1.0806,0.7566,0.3225,-1.5455,0.3299,0.4074
1781766151216,1.5571,0.4704,0.2066,-1.5247,0.0269,0.2865
1781766151256,0.5411,0.0644,-0.0834,-1.4704,-0.044,0.3781
1781766151297,0.1266,0.147,-0.693,-1.4765,-0.0379,0.1991
1781766151337,-1.1226,-0.3375,-0.1177,-1.4838,0.1503,0.2095
1781766151376,0.2747,-0.3173,0.1089,-1.4288,0.0739,0.1631
1781766151416,0.1763,0.2069,-0.9658,-1.4337,0.1057,0.0269
1781766151457,-0.1558,-0.0861,-0.4471,-1.3494,0.1045,0.0214
1781766151496,0.2547,0.6176,-0.3279,-1.2339,0.0495,-0.0556
1781766151536,-1.0029,0.7061,-0.7738,-1.1234,0.1448,-0.0391
1781766151576,-0.4702,0.3103,-0.2454,-1.0226,0.295,-0.0611
1781766151616,-0.4397,-0.0054,-0.9092,-0.9291,0.2162,-0.022
1781766151656,0.0814,0.6383,-0.3822,-0.8302,0.011,-0.0067
1781766151696,-0.4374,0.5427,-0.6427,-0.7666,0.1118,0.0171
1781766151736,0.4231,0.8826,-0.4444,-0.6292,0.0764,-0.047
1781766151776,-0.9738,0.2836,-1.0702,-0.4893,0.0116,-0.0183
1781766151816,-0.896,0.7453,-1.1827,-0.2761,-0.0348,0.0709
1781766151856,-0.5939,0.6825,-1.3058,0.1093,-0.0892,0.1625
1781766151896,-0.4286,0.8654,-1.9503,0.438,0.0971,0.1002
1781766151936,0.139,0.8998,-2.054,0.876,0.0458,-0.0678
1781766151976,-0.5666,0.2149,-1.4698,1.3182,-0.0238,0.0562
1781766152016,-0.0064,-0.0515,-1.5072,1.6451,-0.0415,0.08
1781766152056,0.3909,-0.3938,-0.8328,1.8778,-0.1142,-0.0959
1781766152096,-0.5409,-0.412,-0.6437,1.9988,-0.2682,-0.0806
1781766152136,-1.1307,-0.2262,-0.1036,2.0537,-0.3048,-0.0043
1781766152176,-0.2858,0.1216,-0.417,1.9914,-0.2572,-0.0519
1781766152216,-0.131,0.626,-0.5658,1.8509,-0.3122,-0.2902
1781766152256,0.4893,0.6537,-0.1344,1.7446,-0.1362,-0.493
1781766152296,0.5349,0.2606,0.5887,1.6823,-0.0709,-0.6988
1781766152336,0.0222,0.3368,0.7784,1.653,0.1405,-0.576
1781766152376,0.357,-0.4632,1.0775,1.6371,0.2321,-0.5602
1781766152416,0.4819,0.2621,0.644,1.5992,0.303,-0.653
1781766152456,1.0528,0.4639,0.7047,1.5235,0.4795,-0.7123
1781766152496,0.4183,0.9222,1.1983,1.4502,0.306,-0.6811
1781766152536,1.3922,0.9113,0.7538,1.3775,0.2443,-0.5498
1781766152576,0.5122,-0.3858,0.8827,1.2193,0.1246,-0.3213
1781766152616,0.17,0.1086,0.5718,1.2089,0.0733,-0.2859
1781766152656,0.3759,0.1121,0.7226,1.1973,0.058,-0.3018
1781766152696,-0.1861,1.021,0.0327,1.0452,0.0098,-0.2303
1781766152737,-0.2754,0.3622,-0.3662,0.9603,-0.135,-0.2773
1781766152777,0.4487,0.4199,0.5384,0.744,0.0782,-0.3384
1781766152816,-0.3254,0.2248,0.5897,0.4746,0.1063,-0.2205
1781766152856,0.022,-0.2977,0.7144,0.2871,0.2297,-0.0183
1781766152897,1.1667,-0.3401,0.6179,0.1136,0.0929,0.0031
1781766152937,1.3112,-0.1485,0.1223,0.0379,-0.11,-0.0867
1781766152976,0.2132,-0.0402,-0.1245,0.0153,-0.1967,-0.0605
1781766153016,-0.0717,0.2811,0.7982,0.1069,-0.1264,-0.0104
1781766153056,0.4561,-0.3974,-0.0876,0.0941,-0.1539,-0.0874
1781766153096,-0.2571,0.1175,-0.3162,-0.0354,-0.0837,-0.0342
1781766153136,-0.7248,0.1173,-0.21,-0.3378,-0.033,0.1991
1781766153176,-0.207,-0.9442,-0.6601,-0.8479,-0.3286,0.3451
1781766153216,0.8825,0.2735,-0.4035,-1.2346,-0.2242,0.4435
1781766153256,-0.5679,1.7102,-0.4293,-1.7898,-0.4618,0.6151
1781766153296,0.6358,1.4041,-0.421,-1.7953,-0.212,0.785
1781766153336,0.7254,2.6481,0.1785,-1.7514,0.2511,0.6829
1781766153377,-1.6898,-1.416,1.8528,-1.6377,0.2193,0.7294
1781766153416,0.4787,0.1747,0.9509,-1.7703,-0.0519,0.8595
1781766153456,0.8897,0.932,1.678,-1.6872,-0.2853,0.7275
1781766153496,-0.4077,1.1983,0.6432,-1.576,-0.5003,0.8131
1781766153536,-1.5997,0.6663,0.7216,-1.6493,-0.0709,0.799
1781766153576,-0.2316,-0.1463,0.5172,-1.7526,0.1136,0.5339
1781766153616,-0.0691,0.8939,0.0787,-1.6432,-0.121,0.4972
1781766153656,-1.3701,0.1628,-0.4768,-1.799,-0.0208,0.3653
1781766153696,-0.4855,0.1006,-0.7798,-1.7269,0.1075,0.281
1781766153737,0.5766,-0.185,-0.424,-1.689,0.1307,0.2657
1781766153776,-0.5719,-0.8633,-1.0964,-1.6524,0.0757,0.1735
1781766153816,0.545,-0.2351,-1.1604,-1.5009,0.0739,0.1038
1781766153856,0.2386,-0.4549,-1.0519,-1.4514,0.2688,-0.1075
1781766153896,-0.4516,-0.1597,-1.3759,-1.3683,0.4753,-0.2731
1781766153937,-0.326,0.9186,-0.8112,-1.0763,0.3231,-0.1319
1781766153976,-0.4214,1.2063,-0.7231,-0.6872,0.1002,-0.036
1781766154016,-0.349,0.3951,-1.3252,-0.5003,0.0134,0.0134
1781766154056,-0.59,0.1254,-1.6223,-0.3128,0.2138,-0.0299
1781766154096,0.7338,0.1302,-1.595,-0.0776,0.0641,-0.1289
1781766154137,0.2577,0.4802,-1.6216,0.2914,0.0208,-0.2016
1781766154176,-0.3977,0.7589,-1.8268,0.5669,0.0867,-0.2279
1781766154216,-0.3105,0.8668,-1.3755,0.9511,0.1026,-0.2523
1781766154256,-0.5535,0.6655,-1.1998,1.2724,0.1405,-0.3024
1781766154296,-1.1172,-0.174,-0.6374,1.6616,0.0757,-0.1967
1781766154337,-1.3914,-0.1149,-1.5394,1.7514,0.0586,-0.0336
1781766154376,-0.6206,0.0384,0.1567,1.9303,-0.0544,-0.0134
1781766154416,0.0742,0.0609,-0.394,1.9609,-0.3042,-0.0189
1781766154456,0.3585,0.1621,-0.1167,1.8564,-0.1747,-0.2101
1781766154496,-0.3471,0.3429,0.1924,1.8008,-0.0678,-0.2853
1781766154536,-0.677,-0.0309,0.208,1.6945,-0.0244,-0.3977
1781766154576,1.2367,-0.2774,0.9452,1.6304,0.0165,-0.4771
1781766154616,0.3373,0.3895,0.7251,1.653,-0.0067,-0.4881
1781766154656,-0.0277,-0.4936,0.975,1.5675,0.226,-0.6109
1781766154696,0.0231,-0.094,1.2232,1.6365,0.2853,-0.5516
1781766154737,0.7299,-0.0086,1.4385,1.6151,0.3005,-0.6634
1781766154776,0.8505,0.2082,1.6013,1.6677,0.044,-0.6322
1781766154816,0.4159,-0.1199,1.5322,1.5907,0.1808,-0.5815
1781766154856,0.3324,0.1182,1.4973,1.4551,0.2327,-0.4685
1781766154896,0.4177,0.6807,1.537,1.3531,0.369,-0.3476
1781766154937,-0.2529,0.4706,0.821,1.2333,0.2022,-0.3262
1781766154976,0.518,0.7608,1.1008,1.127,0.2279,-0.3109
1781766155016,0.7855,0.2462,0.6108,0.9438,0.0342,-0.4465
1781766155056,0.5139,0.6341,1.0971,0.8204,0.1179,-0.3775
1781766155096,-0.5206,-0.0123,0.4058,0.4282,0.2566,-0.0696
1781766155137,0.823,-1.1255,-0.2724,-0.0281,0.0159,0.0464
1781766155177,1.2249,-0.6264,-0.0363,-0.171,-0.0874,-0.0257
1781766155217,-0.3782,0.5572,0.9273,-0.0935,-0.1002,-0.1038
1781766155256,-0.6905,-0.0928,0.4442,0.0922,0.2071,0.0483
1781766155296,1.0107,-0.4986,0.2275,-0.0043,0.0428,-0.0244
1781766155337,0.4292,-0.0248,0.1757,-0.113,-0.0886,-0.0342
1781766155376,-0.1312,-0.0941,0.1784,-0.1051,-0.0935,-0.0098
1781766155416,-0.5733,-0.0065,-0.2566,-0.1558,0.0568,0.1112
1781766155456,-0.7158,-0.2499,-0.1782,-0.2016,0.1411,0.08
1781766155497,-0.1392,-0.1502,-0.6557,-0.38,0.1002,0.19
1781766155536,0.9709,0.1804,-0.2016,-0.4142,0.0037,0.2529
1781766155577,0.3176,0.3498,0.0639,-0.7556,-0.2083,0.3329
1781766155616,1.1162,0.2016,0.3737,-0.9029,-0.2309,0.3384
1781766155656,1.4055,1.1235,0.6126,-1.2065,-0.5913,0.2969
1781766155696,0.6343,1.3089,1.9791,-1.2498,-0.5052,0.3042
1781766155737,0.0592,0.0125,1.1619,-1.5699,-0.3354,0.6151
1781766155777,-0.7201,0.2131,1.2196,-1.4826,-0.4026,0.8161
1781766155816,0.1295,0.1433,1.221,-1.3952,0.248,0.7929
1781766155856,-0.862,-0.0512,0.6207,-1.4587,0.1991,0.7086
1781766155896,2.0048,0.2289,0.8595,-1.2926,-0.405,0.7947
1781766155937,1.0735,1.0538,0.5876,-1.4355,-0.3671,0.7092
1781766155977,-0.4591,0.4029,-0.7503,-1.4862,-0.3054,0.6897
1781766156016,-0.9975,-0.8058,0.1484,-1.5101,0.1258,0.5589
1781766156057,1.1635,1.1605,-0.2054,-1.6878,-0.1069,0.3048
1781766156097,-0.0975,1.3226,-0.648,-1.6145,0.1423,0.2896
1781766156137,-0.8747,0.8708,-0.2721,-1.6451,0.1222,0.2902
1781766156176,0.572,1.4607,-0.3668,-1.6664,0.3958,0.1271
1781766156216,-0.0878,-0.0719,-0.345,-1.777,0.3024,-0.0892
1781766156256,-0.5468,-0.1177,0.1452,-1.5498,0.0745,0.0348
1781766156296,-1.1391,-0.2173,-0.9202,-1.5156,-0.088,0.0495
1781766156336,-0.1607,-0.0103,-0.7269,-1.4447,0.1246,0.0794
1781766156376,-1.085,-0.3174,-1.2438,-1.3201,0.1753,0.0849
1781766156417,-0.9036,0.3693,-1.0113,-1.0782,0.0489,0.0403
1781766156457,-0.7183,0.4872,-1.0854,-0.9383,-0.0812,0.0476
1781766156496,-0.6087,0.3414,-1.1775,-0.5394,-0.1527,0.0745
1781766156537,-0.8046,0.3736,-1.4799,-0.2767,-0.0122,0.0623
1781766156576,-0.5334,0.3942,-1.5565,0.0929,-0.0153,0.0367
1781766156616,-0.6326,0.0757,-2.1058,0.4093,0.135,-0.0037
1781766156656,-0.5059,0.3819,-1.5249,0.8363,0.0458,0.0122
1781766156696,-0.7025,-0.0791,-2.0679,1.1399,0.212,-0.0904
1781766156736,-0.3455,-0.1535,-1.3899,1.4099,0.1203,-0.1228
1781766156776,-0.2064,-0.2287,-1.3733,1.5553,0.0495,-0.2046
1781766156816,0.1398,-0.0337,-0.456,1.7135,-0.0684,-0.2492
1781766156856,0.0238,-0.2479,0.0165,1.8894,-0.3012,-0.1961
1781766156896,-0.5168,0.0035,-0.5264,2.0788,-0.5424,-0.2578
1781766156936,0.06,0.058,-0.6574,1.9908,-0.2645,-0.5186
1781766156976,-0.2572,-0.0684,0.0499,1.8503,0.0263,-0.6921
1781766157016,0.1749,-0.3277,0.6224,1.708,0.1772,-0.7019
1781766157056,-0.5534,-1.0074,0.6895,1.7055,0.0739,-0.7068
1781766157096,-0.0296,-0.157,1.6648,1.675,0.1845,-0.6891
1781766157137,-0.1792,0.3285,1.4301,1.5815,0.2883,-0.7025
1781766157176,0.0,0.5666,1.3964,1.6713,0.1863,-0.6805
1781766157216,-0.3442,0.6698,1.0032,1.6335,0.3604,-0.6903
1781766157256,0.9181,0.3959,1.4652,1.5999,0.3867,-0.6781
1781766157297,0.0104,1.0394,1.2519,1.5339,0.3806,-0.4398
1781766157338,-0.4478,0.7299,0.8388,1.2602,0.3439,-0.168
1781766157376,-0.4895,1.2378,0.1248,1.0996,0.4068,-0.1344
1781766157417,0.7742,0.7483,0.0864,0.9578,0.4172,-0.1472
1781766157456,1.0686,0.1474,-0.3291,0.5076,0.4068,-0.1918
1781766157497,0.9634,-0.1459,-0.0505,0.4056,0.0935,-0.2547
1781766157536,0.9302,0.4436,0.5119,0.2773,0.08,-0.1857
1781766157576,-0.0523,-0.1324,0.0405,0.1888,-0.1576,-0.0751
1781766157616,-0.2039,-0.1151,-0.405,0.0953,-0.113,-0.0159
1781766157657,0.2002,-0.4133,-0.1884,-0.1649,-0.2694,0.0409
1781766157697,-0.1494,0.2073,0.2107,-0.336,-0.3567,0.0916
1781766157737,-0.5128,0.0185,-0.3196,-0.5186,-0.5791,0.2682
1781766157777,0.0628,0.2511,0.07,-0.5333,-0.4661,0.2963
1781766157816,-1.3408,0.7872,-0.7673,-1.2138,-0.5333,0.6219
1781766157857,1.168,-0.0423,-0.9585,-1.4771,-0.2602,0.598
1781766157896,-0.3519,1.6921,1.0778,-1.4392,-0.1075,0.606
1781766157936,-0.3627,0.1651,1.5387,-1.2663,0.1063,0.6829
1781766157977,-1.0295,-0.6105,1.0826,-1.3885,-0.0006,0.7544
1781766158017,1.0235,0.8655,0.6026,-1.5443,0.2523,0.5583
1781766158056,0.1602,1.8789,0.4988,-1.4313,-0.2132,0.3806
1781766158096,-1.0229,0.2067,-0.1754,-1.3366,-0.2114,0.4899
1781766158136,-0.6038,0.9547,0.6774,-1.4258,-0.1484,0.672
1781766158177,-0.071,-0.1176,0.7709,-1.4001,-0.1326,0.6231
1781766158216,-0.7365,0.5394,0.2416,-1.3714,0.0776,0.4985
1781766158256,-0.0397,0.3567,0.7111,-1.4025,-0.0495,0.4032
1781766158296,-0.6324,0.5543,0.1857,-1.3256,-0.1381,0.5205
1781766158337,-0.4811,0.9854,-0.1337,-1.3934,0.0745,0.3684
1781766158376,-0.8182,0.8018,-0.3531,-1.3922,0.3048,0.3836
1781766158417,1.0061,-0.1841,-0.0038,-1.2535,-0.0446,0.2669
1781766158457,-0.2436,-0.5663,-0.6272,-1.1698,-0.08,0.2407
1781766158498,0.1324,-0.0539,-0.8264,-1.1423,0.0379,0.2425
1781766158539,0.1446,-0.0351,-0.4951,-1.0287,0.0287,0.1075
1781766158577,0.3084,-0.0571,-0.6048,-0.9279,-0.0574,0.0965
1781766158616,-0.4134,-0.3132,-1.2529,-0.8357,0.0092,0.0556
1781766158656,-0.1939,-0.3386,-1.2622,-0.6463,-0.0073,0.0531
1781766158696,-0.1093,-0.2106,-1.2462,-0.391,-0.0696,0.0696
1781766158737,-0.3558,0.1059,-1.6161,-0.1014,0.0489,0.0757
1781766158776,-0.4076,0.281,-1.302,0.1857,0.1686,0.0232
1781766158816,-0.3454,-0.1575,-2.0374,0.2908,0.1491,-0.0483
1781766158856,-0.3828,-0.0548,-1.8092,0.6671,0.0483,-0.0709
1781766158897,-0.4459,-0.5984,-1.558,1.1289,0.0507,-0.0696
1781766158938,0.0829,-0.2772,-1.1627,1.3244,-0.0446,-0.1515
1781766158977,-0.0993,-0.2939,-1.3418,1.3891,-0.0476,-0.2053
1781766159016,-0.1176,-0.349,-1.2025,1.5742,-0.0812,-0.3378
1781766159057,-0.0588,-0.142,-0.5523,1.5913,-0.0745,-0.3225
1781766159096,0.4698,-0.2988,-0.5092,1.6756,-0.212,-0.5186
1781766159137,-0.0828,-0.4524,-0.5351,1.6347,-0.1362,-0.6274
1781766159177,-0.4231,-0.3231,-0.1516,1.6341,0.0574,-0.6475
1781766159216,0.1535,-0.3252,0.8389,1.6041,0.1399,-0.7037
1781766159256,-0.2957,-0.1245,0.6514,1.6652,0.1491,-0.6927
1781766159296,0.1947,0.1832,0.8334,1.6365,0.2279,-0.5901
1781766159337,0.3128,0.9711,1.2309,1.6658,0.1607,-0.6988
1781766159376,0.1675,1.4412,0.8976,1.6426,0.1936,-0.6939
1781766159416,0.5347,0.8044,0.7837,1.5962,0.2572,-0.6762
1781766159456,0.3159,0.9415,0.977,1.5375,0.1545,-0.576
1781766159496,0.1846,0.9656,0.6619,1.4099,0.1338,-0.5278
1781766159536,-0.192,0.4931,0.7515,1.3573,0.113,-0.3836
1781766159576,-0.8958,0.5424,0.753,1.3983,0.0391,-0.2034
1781766159616,-0.8747,0.5949,0.4545,1.2248,0.3512,-0.2138
1781766159656,0.3813,0.8741,-0.0497,0.9969,0.3598,-0.4349
1781766159696,1.6673,1.6145,1.0787,0.5241,0.369,-0.2932
1781766159736,-0.6607,-0.7679,0.1237,0.102,0.2969,-0.0874
1781766159776,0.7361,-1.5487,0.2525,-0.1246,0.0605,0.1668
1781766159816,1.6556,0.1481,0.1072,-0.1277,0.055,0.1252
1781766159857,0.5685,0.6458,0.676,-0.0031,-0.0409,-0.0409
1781766159896,0.1401,-0.0778,0.8259,0.0764,-0.168,0.0452
1781766159936,0.7046,-0.1397,-0.1594,0.0293,-0.1564,-0.0354
1781766159977,0.3531,0.123,-0.5533,-0.0825,-0.2425,-0.0782
1781766160017,-1.078,-0.2583,-0.4199,-0.1912,-0.1625,0.0599
1781766160056,-0.5948,-0.3818,-0.6114,-0.248,-0.1509,0.1258
1781766160096,0.5013,-0.3026,-1.0361,-0.5748,-0.4374,0.1484
1781766160137,-0.7561,0.7049,-0.2226,-0.7227,-0.3574,0.2541
1781766160176,-0.9267,0.4599,0.1856,-0.9218,-0.3354,0.5938
1781766160216,0.3672,-0.3227,-0.6183,-1.2969,-0.1582,0.7251
1781766160257,0.3214,2.1717,-0.3122,-1.7092,0.2804,0.6555
1781766160296,1.3079,1.9249,1.3376,-1.5473,-0.2981,0.3225
1781766160336,-1.1182,-0.5083,1.9211,-1.6994,0.0208,0.8094
1781766160376,1.6693,-0.1979,1.0912,-1.7935,-0.2169,0.8845
1781766160417,-1.6157,1.4838,1.3157,-1.5333,-0.2065,0.8369
1781766160456,0.8839,1.0802,1.2212,-1.7746,0.0751,0.6414
1781766160497,-0.1089,-0.1331,0.698,-1.5992,-0.3378,0.6518
1781766160537,-1.6305,1.3156,0.5896,-1.6133,-0.0312,0.7367
1781766160576,1.0777,-0.3832,0.1645,-1.5699,-0.0599,0.5278
1781766160617,-0.4948,0.9486,-0.0396,-1.4936,-0.0739,0.5107
1781766160656,1.6841,0.4442,-0.301,-1.5614,-0.2963,0.3671
1781766160696,-0.8994,-0.4137,-0.182,-1.4704,-0.0293,0.3134
1781766160737,-0.0883,-0.842,-0.5764,-1.5522,0.1069,0.2517
1781766160776,0.7719,0.0935,-1.0245,-1.6298,0.1252,-0.0147
1781766160816,-0.4974,-0.7687,-0.7622,-1.4783,0.088,0.0086
1781766160857,-0.3091,0.2028,-0.5428,-1.4508,0.1356,-0.0043
1781766160897,-0.4718,0.2297,-0.9517,-1.4117,0.1405,-0.069
1781766160937,0.0352,0.8949,-0.1075,-1.1228,0.1436,-0.0452
1781766160976,-1.3133,0.6418,-0.547,-0.9175,0.1442,-0.0544
1781766161016,-1.3799,0.5428,-0.838,-0.7349,0.1216,-0.0031
1781766161056,-0.1139,0.8313,-0.4839,-0.5541,0.0525,0.2089
1781766161096,0.0753,0.5977,-0.8491,-0.4252,-0.0043,0.1582
1781766161136,0.403,0.0588,-1.1258,-0.3769,0.0483,-0.044
1781766161176,-0.5138,-0.059,-1.016,-0.2737,0.0727,-0.0941
1781766161217,-1.1182,0.3366,-0.6978,-0.1148,-0.0061,-0.0208
1781766161257,-0.6855,0.3701,-0.9038,0.1387,0.0104,0.1307
1781766161296,-0.4193,0.4769,-1.4019,0.5229,-0.0171,0.1784
1781766161336,-1.3044,0.7243,-1.4849,0.7269,0.0788,0.1912
1781766161376,-1.3391,0.3706,-1.3788,0.9933,0.1704,0.2071
1781766161416,0.0313,0.2076,-0.713,1.2168,0.1057,0.1668
1781766161456,-0.2102,0.1716,0.1915,1.3427,0.0018,0.1619
1781766161496,0.0669,0.1944,-0.9141,1.5082,0.0104,0.0354
1781766161537,-0.195,0.188,-0.052,1.6194,-0.0593,0.0281
1781766161576,-0.4909,-0.0379,0.334,1.8497,-0.2181,-0.1063
1781766161616,-0.4453,-0.2419,-0.7892,1.8161,-0.19,-0.121
1781766161656,0.2703,-0.0654,-0.6005,1.832,-0.2474,-0.2309
1781766161696,0.4995,0.1386,-0.5901,1.7245,-0.3635,-0.4417
1781766161737,0.292,0.4129,0.0438,1.6725,-0.2975,-0.6292
1781766161777,-0.215,0.3486,0.0364,1.5699,-0.0544,-0.9175
1781766161816,-0.1199,-0.0819,1.1134,1.6084,0.0788,-0.8479
1781766161856,-0.7229,0.0145,1.0266,1.6011,0.0861,-0.5846
1781766161896,-0.7009,0.5927,1.3909,1.6353,0.2334,-0.65
1781766161937,-0.0631,0.1882,0.8705,1.6347,0.2321,-0.7428
1781766161977,0.3043,-0.03,1.228,1.6396,0.2682,-0.7526
1781766162017,-0.0651,-0.623,1.278,1.6035,0.3085,-0.7544
1781766162057,-0.7066,0.6625,2.1709,1.5614,0.2199,-0.6561
1781766162096,-1.1134,1.0,1.1621,1.496,0.0531,0.0299
1781766162137,-0.2094,0.9393,0.7332,1.273,0.1167,-0.1423
1781766162176,1.3596,0.6278,-0.3807,0.8063,0.595,-0.5125
1781766162216,1.4615,-0.215,0.101,0.6799,0.6493,-0.598
1781766162256,-0.6882,0.4146,0.8686,0.5956,0.2731,-0.3818
1781766162296,-0.3108,-0.4327,0.5655,0.2914,0.1393,-0.0171
1781766162336,1.4194,-0.6614,0.3733,-0.0195,-0.0654,0.0165
1781766162376,1.2114,-0.2802,0.5631,-0.088,-0.2077,-0.0501
1781766162416,-0.2278,0.225,1.0817,-0.0782,-0.1246,-0.0837
1781766162457,-0.1156,-0.1425,0.3952,0.0757,-0.0153,-0.0122
1781766162497,0.6142,0.036,-0.1408,0.0733,-0.0776,-0.0464
1781766162536,0.1735,-0.143,0.1982,-0.025,-0.2028,-0.0635
1781766162576,-0.363,-0.295,-0.0256,-0.0788,-0.2517,-0.0275
1781766162617,-0.2621,-0.423,-0.5201,-0.237,-0.1967,0.0702
1781766162657,-0.5771,-0.1399,-0.2927,-0.3971,-0.1466,0.1087
1781766162696,-0.6174,0.0069,-0.3162,-0.8467,-0.0733,0.3855
1781766162737,0.8316,0.1547,-0.0859,-1.2785,-0.2046,0.4954
1781766162776,-0.2655,1.6764,-1.3222,-2.0391,-0.537,0.6915
1781766162817,0.7947,1.9605,1.9025,-1.5608,-0.1875,0.5076
1781766162857,0.4405,0.0417,1.9578,-1.471,-0.069,0.7544
1781766162896,-1.1405,-0.0362,0.8405,-1.7233,0.1778,0.7672
1781766162937,-0.4542,-0.172,-0.0536,-1.4386,0.2517,0.686
1781766162976,1.7838,1.5577,1.6923,-1.5754,0.2486,0.537
1781766163017,0.2978,1.5887,1.0632,-1.306,-0.8326,0.5498
1781766163056,-0.8781,-0.8211,0.0004,-1.3647,-0.3537,0.7844
1781766163096,-1.4064,-0.4832,-0.0817,-1.4386,0.2358,0.4453
1781766163137,0.5094,1.6479,0.1067,-1.4539,0.0812,0.317
1781766163176,1.3404,-0.1125,0.0773,-1.4471,-0.2291,0.3983
1781766163217,-0.996,0.4282,0.0462,-1.5125,0.0599,0.3861
1781766163257,0.1241,1.0496,-0.4391,-1.639,0.4771,0.3195
1781766163296,0.5127,1.1978,-0.5758,-1.6921,0.1662,-0.0458
1781766163336,-1.2211,0.3013,-0.4425,-1.4575,0.0202,0.1374
1781766163376,-1.342,-0.785,-0.9742,-1.3567,0.0397,0.2303
1781766163416,-0.1235,-0.0689,-0.9649,-1.2181,0.0764,0.2144
1781766163457,0.4888,-0.612,-0.4226,-1.0708,0.0837,0.0953
1781766163496,-0.053,-0.7847,-0.8884,-0.9639,0.0715,0.0489
1781766163536,0.0798,-0.5162,-1.2898,-0.8754,0.0806,-0.0391
1781766163576,-0.2143,-0.2929,-0.5691,-0.7648,0.0464,0.0428
1781766163616,-0.4481,0.1073,-0.7121,-0.5742,0.0257,-0.0055
1781766163656,-0.0437,0.3706,-0.7813,-0.3079,0.0489,-0.0086
1781766163696,-1.1874,1.0385,-1.1792,-0.121,0.0702,0.0049
1781766163737,-1.2794,0.6135,-2.0632,0.4392,0.1142,0.0648
1781766163777,-0.6603,0.2596,-1.7546,0.8931,-0.0086,0.025
1781766163817,-0.5146,-0.3473,-2.2776,1.204,0.0232,-0.0855
1781766163856,-0.5318,-0.6272,-1.6112,1.4771,-0.0189,-0.1032
1781766163896,-0.0411,-0.4653,-1.0891,1.617,-0.0257,-0.1985
1781766163937,-0.0164,-0.3609,-0.8813,1.6817,-0.0269,-0.2847
1781766163976,-0.1692,-0.2107,-0.7003,1.7422,-0.0079,-0.2828
1781766164017,-0.201,-0.0864,0.0829,1.8234,-0.0904,-0.2657
1781766164057,-0.0604,-0.4142,-0.334,1.8149,-0.1228,-0.2987
1781766164096,0.7382,-0.1918,-0.0896,1.8228,-0.1332,-0.5583
1781766164137,0.0545,0.1757,0.4727,1.7752,-0.0098,-0.6542
1781766164176,-0.1394,-0.1969,0.7155,1.8424,0.0562,-0.6219
1781766164216,-0.2219,-0.1957,0.8424,1.8344,0.1234,-0.6127
1781766164256,0.2579,0.1833,1.124,1.8051,0.2523,-0.672
1781766164296,0.1774,0.663,1.4482,1.7904,0.3867,-0.7538
1781766164337,-0.1824,0.8303,1.3964,1.81,0.4197,-0.6726
1781766164377,1.072,0.6201,1.552,1.7611,0.3989,-0.672
1781766164417,0.2941,1.0421,0.9819,1.6127,0.1057,-0.6573
1781766164456,-0.4854,0.2018,0.8746,1.4062,-0.0177,-0.372
1781766164496,-1.4621,0.0984,0.9511,1.2816,-0.0983,-0.1319
1781766164537,-0.8451,0.5805,0.8408,1.1661,-0.0513,-0.1637
1781766164577,0.3137,0.6179,-0.0566,0.8412,0.1613,-0.1833
1781766164616,1.0488,1.0411,0.6105,0.6322,0.1155,-0.2443
1781766164656,0.171,0.0775,0.3868,0.4661,0.1069,-0.3274
1781766164696,-0.0234,-0.9726,1.5156,0.3763,0.3036,-0.1478
1781766164736,0.2883,-0.6195,0.3845,0.1784,0.121,0.1051
1781766164776,1.1115,-0.4883,-0.7795,-0.0996,-0.1045,0.0214
1781766164817,0.537,-0.0503,0.8553,-0.1833,-0.1466,-0.0183
1781766164856,-0.0622,0.6366,1.5132,-0.0018,-0.2065,0.0159
1781766164896,0.1429,-0.1488,0.7016,0.0403,-0.1118,0.0318
1781766164936,0.4117,-0.6415,0.2207,-0.0287,-0.1271,0.0391
1781766164977,0.0915,0.0567,0.2898,-0.0971,-0.1564,0.0281
1781766165016,-0.6351,-0.1479,-0.2542,-0.4093,-0.2224,0.1564
1781766165056,-0.581,-0.6034,-0.8465,-0.6939,-0.5119,0.2327
1781766165096,-0.9516,-0.1214,0.46,-0.7801,-0.6713,0.3183
1781766165136,-0.1008,1.5272,1.2596,-1.3726,-0.1032,0.3482
1781766165176,0.064,1.2894,-2.7888,-2.1673,-0.248,0.8833
1781766165217,-1.6945,-0.6888,0.7486,-2.022,-0.193,1.0037
1781766165256,2.0325,2.1142,2.4941,-1.5241,0.5143,0.4649
1781766165296,-0.4371,0.1064,0.3821,-1.4508,-0.2114,0.3867
1781766165337,-0.9372,-0.2417,0.2562,-1.8595,0.3812,0.8632
1781766165376,0.7383,2.0606,-0.3255,-1.5595,0.0922,0.5834
1781766165416,-0.5213,1.9492,0.8828,-1.4184,-0.2217,0.6176
1781766165456,-0.5188,0.6586,-0.052,-1.3836,-0.226,0.7446
1781766165498,-1.4251,-0.1993,0.3218,-1.3873,-0.2792,0.6805
1781766165537,-0.0946,1.3611,-0.3965,-1.5455,0.1423,0.4246
1781766165576,0.2658,0.8788,0.6139,-1.5675,-0.0391,0.2981
1781766165616,-0.2797,-0.7177,0.5442,-1.5864,-0.1857,0.27
1781766165656,-1.0093,-0.5081,-0.3261,-1.5589,-0.2162,0.3256
1781766165697,0.0652,0.3217,-0.9396,-1.5516,-0.1069,0.3787
1781766165737,1.1177,0.3019,-0.7517,-1.6096,0.1991,0.0342
1781766165776,-0.2653,-1.1217,-1.2799,-1.5669,0.2053,0.0501
1781766165816,1.6176,1.0895,-0.7902,-1.5327,0.2737,-0.1735
1781766165856,0.0914,0.301,-0.9429,-1.2291,-0.1802,-0.1545
1781766165896,-1.4989,0.444,-0.2707,-1.1044,-0.0849,0.0031
1781766165939,-1.1152,0.3818,-0.4076,-0.7508,-0.0672,0.3079
1781766165976,-0.1189,0.0038,-1.5353,-0.6463,-0.0232,0.2028
1781766166016,-0.312,-0.0004,-1.619,-0.598,0.1851,0.0269
1781766166056,0.3407,-0.4053,-1.2952,-0.2657,0.0324,0.1057
1781766166097,-1.3786,0.4924,-1.7137,-0.1222,0.0,0.1301
1781766166137,-0.3966,1.2089,-1.4771,0.485,0.025,0.1509
1781766166177,-0.6935,1.1458,-1.7546,0.8564,0.1234,0.0452
1781766166216,-0.4229,0.6655,-1.3449,1.1075,0.0721,0.0006
1781766166256,-0.5436,-0.0443,-0.9682,1.4154,0.0874,-0.1142
1781766166296,-0.0928,-0.2749,-1.3903,1.7165,-0.0672,-0.1521
1781766166337,-0.4303,0.015,-0.8862,1.7318,-0.1387,-0.182
1781766166377,-0.0918,-0.07,-0.3376,1.7397,-0.0764,-0.3641
1781766166417,-0.4535,0.0414,-0.1006,1.6768,-0.0244,-0.3439
1781766166457,-0.0581,-0.0966,0.4884,1.6744,0.0171,-0.3305
1781766166496,-0.8228,-0.1743,0.5397,1.8069,-0.1045,-0.3378
1781766166537,0.0542,0.1316,0.4035,1.7239,-0.0079,-0.5272
1781766166576,0.5052,0.1074,0.6526,1.7031,0.0947,-0.5797
1781766166616,0.2214,0.3745,0.6032,1.5058,0.2065,-0.5651
1781766166657,-0.8024,0.6028,1.1959,1.5522,0.2089,-0.5651
1781766166696,-0.2769,0.8821,0.6411,1.5492,0.1582,-0.4954
1781766166737,-0.4809,0.5044,0.8963,1.5418,0.1625,-0.4979
1781766166776,0.1028,0.4728,0.9239,1.4917,0.339,-0.5412
1781766166816,0.1041,-0.7358,1.7181,1.3616,0.193,-0.551
1781766166856,1.1184,0.1189,1.8278,1.328,-0.0324,-0.4606
1781766166896,1.1079,-1.0363,1.9457,1.438,-0.1423,-0.4117
1781766166936,1.0926,0.6087,1.8112,1.4978,-0.4673,-0.2987
1781766166976,-0.0452,1.0304,0.4665,1.3329,-0.3531,-0.2755
1781766167017,-0.2375,0.7629,-0.2629,1.0965,-0.2364,-0.3134
1781766167057,0.0532,1.0691,0.5277,0.672,0.0831,-0.4838
1781766167096,-0.4513,0.3366,-0.8365,0.3732,-0.0544,-0.1509
1781766167137,0.4902,-1.0676,-0.622,0.2908,0.033,-0.0556
1781766167176,0.9153,-1.2281,-0.7651,-0.1717,-0.1857,-0.0257
1781766167216,0.5041,0.3297,0.543,-0.2407,-0.1472,-0.0409
1781766167256,-0.075,0.0568,0.9219,-0.0965,0.0812,0.0257
1781766167296,0.6838,0.6029,-2.7331,0.0959,0.1161,-0.0648
1781766167337,0.9283,-0.5218,0.0545,0.0476,-0.077,-0.088
1781766167377,0.7776,-0.3054,0.4167,0.0043,-0.2346,-0.069
1781766167416,0.0746,0.1412,0.322,-0.1845,-0.317,0.091
1781766167457,-0.079,-0.0161,-0.0941,-0.2468,-0.2657,0.1045
1781766167497,-0.6428,-0.4659,-0.9165,-0.6445,-0.2957,0.2395
1781766167537,-0.7972,0.1854,0.2634,-0.7324,-0.2731,0.3152
1781766167576,0.0247,0.9357,-1.2504,-1.3494,-0.0922,0.4801
1781766167617,-1.2877,0.6602,-1.1015,-1.9774,0.011,0.766
1781766167656,0.8959,2.379,1.9151,-1.6713,0.6811,0.6628
1781766167697,-0.0286,1.6852,2.3742,-1.4227,0.6493,0.6457
1781766167736,0.3458,-3.6431,1.3904,-1.6719,0.2291,0.5559
1781766167776,1.1503,2.387,1.4724,-1.5516,-0.2486,0.5547
1781766167817,1.3938,1.0423,0.8971,-1.3635,-0.5644,0.6842
1781766167857,-1.9539,-1.0553,-0.3555,-1.3231,-0.485,0.6891
1781766167897,0.5347,0.3195,-0.1937,-1.4105,0.0489,0.6353
1781766167936,0.9446,0.9793,-0.2431,-1.4313,0.0287,0.2969
1781766167977,-0.3161,0.1496,0.608,-1.3958,0.0281,0.3506
1781766168016,-0.0129,0.3444,-0.4056,-1.3989,-0.0391,0.3494
1781766168056,-0.1013,0.6308,-0.1365,-1.4331,-0.0232,0.3323
1781766168096,-0.7361,0.4132,-0.4454,-1.3952,0.0458,0.2315
1781766168137,-0.1141,0.1877,-0.7495,-1.4795,0.1155,0.1063
1781766168176,0.7564,-0.093,0.2577,-1.3347,-0.1344,0.0648
1781766168217,-0.7149,-0.2735,-0.6987,-1.1961,-0.0715,0.1148
1781766168256,-0.125,0.1736,-1.1694,-1.1655,-0.0006,0.033
1781766168296,-0.1166,0.2092,-0.6755,-1.0037,-0.0342,0.0568
1781766168337,-0.4201,0.8548,-0.7429,-0.8968,-0.0098,0.0513
1781766168376,-0.6373,0.3488,-1.471,-0.5809,0.1326,0.193
1781766168416,-0.1972,0.2053,-1.503,-0.3451,0.0929,0.1313
1781766168456,-0.264,0.4551,-1.4247,0.1332,0.0874,0.0806
1781766168496,-0.1529,-0.6858,-2.7028,0.38,0.069,0.0373
1781766168536,0.4755,-0.3406,-2.0245,0.7966,0.0593,-0.1063
1781766168576,0.0897,-0.6885,-2.4181,1.0696,0.0238,-0.204
1781766168616,-0.453,-0.7694,-1.3934,1.3518,0.0617,-0.1588
1781766168656,-0.1462,-0.1871,-1.0739,1.4752,0.0153,-0.1283
1781766168696,-0.2295,0.0403,-0.3059,1.7489,-0.1796,-0.1649
1781766168736,0.1594,-0.6056,-0.6616,1.7758,-0.2315,-0.1631
1781766168776,-0.1094,-0.2192,-0.2076,1.835,-0.3238,-0.4087
1781766168816,-0.1035,-0.1542,0.0161,1.8088,-0.2187,-0.5748
1781766168857,-0.1047,-0.5908,0.1167,1.7391,0.0122,-0.6616
1781766168897,0.2138,-0.1417,0.6855,1.7349,0.0611,-0.6475
1781766168936,0.4341,0.5328,0.8498,1.6634,0.2187,-0.6891
1781766168977,0.2987,0.8359,1.5017,1.6964,0.2309,-0.642
1781766169016,-0.1945,1.0159,1.4701,1.6707,0.0244,-0.6451
1781766169056,-0.6053,2.0008,1.2775,1.5388,-0.0922,-0.3207
1781766169096,-0.177,1.9206,0.3217,1.5595,-0.201,-0.2688
1781766169136,0.4487,-0.2508,0.2778,1.3213,0.0782,-0.5021
1781766169176,1.0168,0.1877,-0.2659,1.0061,0.16,-0.6829
1781766169217,0.2622,-0.0544,0.5908,1.025,0.1252,-0.6811
1781766169256,-0.2705,0.1645,0.6075,1.0678,0.2169,-0.4136
1781766169297,-1.2122,-0.1658,0.9833,1.1515,0.0269,-0.215
1781766169337,-0.5669,0.7405,0.1032,0.9407,0.2547,-0.2443
1781766169376,0.8954,1.6496,0.5253,0.576,0.2993,-0.3482
1781766169416,0.6409,1.8215,0.0767,0.708,0.2053,-0.3696
1781766169456,1.3844,-1.9433,0.0117,0.5009,0.3115,-0.3598
1781766169497,-1.1131,-1.1172,-0.5559,-0.1436,-0.2938,0.08
1781766169536,-0.2591,-1.1472,-0.6623,-0.1918,-0.1637,0.1197
1781766169577,0.2726,0.9081,0.4262,-0.1833,-0.0935,0.0641
1781766169616,-0.1536,1.1419,0.5792,0.0721,0.3097,-0.0434
1781766169656,0.6762,-1.5906,0.4027,0.1063,0.0012,-0.0055
1781766169696,0.4918,0.7161,0.2087,-0.0819,-0.0263,0.0672
1781766169736,0.5509,-0.7487,-0.2879,-0.1545,0.0312,0.0409
1781766169777,0.0464,-0.3852,-0.1326,-0.2566,-0.0666,0.055
1781766169816,-0.4292,0.9184,0.1995,-0.65,-0.0819,0.2309
1781766169856,0.3569,-0.8567,-0.4667,-0.7672,0.0495,0.3329
1781766169896,-2.1086,-0.5067,-1.5373,-1.3127,-0.1857,0.9804
1781766169938,0.1788,3.4754,0.889,-1.6512,0.1649,0.8308
1781766169976,1.3173,0.866,-2.108,-2.4545,0.474,0.515
1781766170017,1.1541,-0.0427,1.7715,-2.3384,0.1319,0.5571
1781766170056,4.3358,5.1878,1.3304,-1.2761,-0.6988,0.3891
1781766170096,-3.0667,-3.2433,1.9525,-1.8204,-1.1136,0.2511
1781766170136,-2.2144,-0.137,-0.5138,-1.4484,-0.0849,0.5461
1781766170176,-1.2808,1.1381,0.8037,-1.6072,0.1148,0.5614
1781766170216,0.4446,0.2474,1.1746,-1.3512,-0.2926,0.3384
1781766170256,-0.1261,1.0707,0.2754,-1.3085,-0.295,0.3592
1781766170296,-0.9332,-0.3054,-0.3937,-1.3195,-0.0843,0.5828
1781766170336,0.3865,0.6305,-0.1759,-1.3127,0.036,0.3219
1781766170376,-0.2652,0.5458,-0.2598,-1.3769,0.1387,0.2737
1781766170416,-0.0905,0.2791,-0.0327,-1.4032,0.1918,0.2853
1781766170457,0.5913,-0.298,-0.9672,-1.3616,-0.2401,0.3958
1781766170496,0.0873,0.2393,-0.706,-1.3787,-0.1075,0.2761
1781766170536,0.1463,-0.3355,-0.8257,-1.2816,0.2315,0.0531
1781766170576,0.3366,-0.2675,-1.3929,-1.1588,-0.0452,-0.0599
1781766170616,0.2441,0.0159,-0.8717,-0.9933,-0.0458,0.0171
1781766170657,-0.6443,-0.6196,-0.667,-0.9187,0.0342,0.0867
1781766170696,0.3639,0.1821,-1.2861,-0.6481,-0.0696,0.0006
1781766170736,-0.593,-0.0394,-0.8528,-0.5473,-0.044,0.0269
1781766170776,-0.6324,0.1197,-1.5711,-0.0177,-0.0678,0.1888
1781766170816,-1.0333,0.3628,-2.4227,0.2883,0.0183,0.2077
1781766170857,-0.2614,0.156,-1.2625,0.4465,0.1472,0.1393
1781766170896,-0.3331,-0.0355,-1.9386,0.8595,0.1741,0.0128
1781766170936,-0.0164,-0.2258,-1.4816,0.9847,0.124,-0.0586
1781766170977,0.122,-0.2375,-0.9503,1.1057,0.1668,-0.0782
1781766171016,-0.0031,-0.3648,-0.6635,1.3622,-0.0312,-0.1759
1781766171056,-0.6385,0.1621,-0.7663,1.4862,-0.1313,-0.4068
1781766171096,-0.1989,0.3806,-0.3679,1.6115,-0.1558,-0.6555
1781766171137,-0.7893,-2.0455,0.5954,1.7538,-0.2523,-0.1607
1781766171176,-0.1344,-0.4455,-0.0208,1.6102,-0.2816,-0.1509
1781766171217,-0.0969,0.5126,0.1377,1.6218,-0.0593,-0.2095
1781766171256,0.1537,0.2538,0.2997,1.5107,0.1906,-0.2938
1781766171296,0.3766,0.3934,0.0047,1.4765,0.2688,-0.3622
1781766171336,-0.8797,0.2572,0.6229,1.4734,0.3311,-0.496
1781766171377,0.5379,0.9392,0.4535,1.4923,0.2724,-0.5034
1781766171417,0.7341,0.8281,0.4965,1.4539,0.2669,-0.515
1781766171456,-0.4933,0.9122,-0.1555,1.4484,0.3219,-0.6096
1781766171496,-0.8818,0.5704,-0.3387,1.4722,0.5198,-0.5651
1781766171536,-2.7582,1.0359,1.0444,1.5186,0.6151,-0.2462
1781766171576,-1.1253,1.2948,0.4569,1.6121,0.8344,0.0226
1781766171616,1.3674,0.1642,0.4453,1.4532,0.7349,0.19
1781766171656,4.7333,0.1974,-0.1309,0.7721,0.2969,-0.6524
1781766171697,2.6832,0.3219,2.0509,1.0,0.099,-0.7813
1781766171737,0.0357,0.0689,1.7985,1.0354,-0.3238,-0.438
1781766171776,-1.2722,0.4471,0.9168,0.942,-0.4368,-0.1723
1781766171816,-0.0953,0.7735,0.1469,0.5901,0.0287,-0.2786
1781766171856,-1.2503,-1.2573,-0.4014,0.2181,-0.1179,-0.1356
1781766171896,-0.0708,-0.7221,-0.7187,-0.0983,-0.2407,0.0367
1781766171936,-0.0819,-0.396,-0.3292,-0.1014,-0.2834,-0.0079
1781766171976,-0.3383,0.0099,0.5945,-0.0147,0.0666,-0.058
1781766172016,-0.2225,0.0416,0.8504,0.0342,0.1326,-0.055
1781766172057,0.2503,-0.2009,0.0403,0.0037,-0.0757,0.0757
1781766172097,0.7205,-0.6106,-0.1775,-0.2541,-0.182,0.1478
1781766172136,0.359,-0.321,-0.3327,-0.6402,-0.3305,0.2321
1781766172176,-0.1362,0.0152,0.4571,-0.9859,-0.4954,0.3012
1781766172216,0.4217,0.6153,-0.452,-1.1716,-0.6243,0.3109
1781766172256,-1.003,1.7543,-0.9536,-1.9755,-0.5357,0.6713
1781766172296,-0.3574,1.7041,-0.9792,-2.295,0.317,0.5534
1781766172336,0.4333,2.1586,1.6726,-1.6878,0.1839,0.4985
1781766172376,-0.6053,-2.1356,3.3793,-1.7654,0.1552,0.6622
1781766172416,0.5999,1.6446,1.8993,-1.6597,0.0086,0.5473
1781766172456,1.2527,-0.041,0.4461,-1.4142,-0.2132,0.6109
1781766172496,-0.0566,0.4762,0.0604,-1.493,-0.515,0.5583
1781766172536,-0.2692,0.446,-0.6155,-1.5632,-0.4191,0.5473
1781766172577,-3.9013,0.683,0.6932,-1.449,0.1063,0.5461
1781766172616,1.0117,1.3731,0.3007,-1.3964,0.033,0.394
1781766172656,-0.2573,1.4102,-0.6858,-1.3879,-0.0476,0.4398
1781766172697,-0.7424,-0.0794,0.15,-1.4728,0.0134,0.4374
1781766172736,-0.1213,0.4289,-0.4206,-1.463,0.1344,0.3122
1781766172776,-0.0344,-0.0905,-1.0407,-1.3818,0.0495,0.3115
1781766172816,0.3478,0.0147,-0.8594,-1.43,0.0812,0.204
1781766172856,0.5197,-0.7725,-0.3055,-1.3048,0.0684,0.0281
1781766172896,0.72,0.1399,-1.2732,-1.2162,0.0415,-0.08
1781766172937,0.3698,-0.7483,-0.5428,-1.0806,-0.0049,-0.1374
1781766172977,-0.9271,0.2022,-1.0639,-0.854,0.0641,-0.0788
1781766173016,-0.0225,0.1977,-0.9494,-0.6683,0.044,-0.0525
1781766173056,0.1162,-0.3354,-2.3283,-0.5003,0.0031,0.0263
1781766173096,-0.4107,0.1815,-0.6983,-0.0043,0.1912,-0.033
1781766173136,-0.2855,-0.1672,-2.2662,0.4911,0.0244,0.069
1781766173176,-1.143,-0.2706,-2.21,0.9114,0.0635,0.1063
1781766173216,-1.0961,-0.5512,-1.5304,1.262,0.1649,0.1106
1781766173257,0.1953,-0.7175,-1.1617,1.5553,-0.0544,0.1484
1781766173296,0.2064,-0.3003,-1.1317,1.6163,-0.0629,0.0635
1781766173336,0.379,-0.5909,-1.2445,1.7581,-0.1643,-0.2566
1781766173376,-0.4253,-0.3819,-0.5595,1.7367,-0.1112,-0.3555
1781766173416,-0.5881,0.0017,-0.326,1.8473,-0.1026,-0.4166
1781766173457,-0.2759,0.1688,-0.6,1.8564,-0.0312,-0.6133
1781766173496,-0.3276,-0.3573,0.3633,1.7715,0.1619,-0.5815
1781766173536,0.5357,0.2256,0.7838,1.934,0.1576,-0.4954
1781766173576,-0.1745,0.3336,0.6343,2.0745,0.4282,-0.6475
1781766173616,-0.6742,-0.0935,1.308,1.9786,0.5815,-0.7355
1781766173656,-0.4919,0.6878,1.9978,2.1185,0.4258,-0.5241
1781766173696,0.3145,1.2873,1.5063,2.0947,0.1888,-0.1863
1781766173736,-0.938,0.9599,1.7519,2.044,0.1668,0.1723
1781766173776,0.0188,1.044,-0.0587,1.4105,0.661,-0.2266
1781766173816,3.3754,4.2422,0.7718,1.1002,0.4905,-0.631
1781766173856,2.8701,3.459,2.0291,0.9646,0.0751,-0.8833
1781766173896,-2.3761,-4.7406,0.4498,0.6781,-0.4465,-0.4862
1781766173936,-0.9119,0.0281,0.5523,0.5724,0.2028,-0.0641
1781766173976,-0.0774,0.6722,0.8799,0.1399,2.0849,-0.0617
1781766174016,-5.4749,-1.9212,2.5327,0.7746,-0.3812,-0.0904
1781766174056,-0.3263,0.2365,-1.2185,-0.0403,0.3268,0.0043
1781766174096,1.6828,-1.3213,-0.1364,-0.3012,-0.1814,0.0183
1781766174136,0.5217,0.2521,-1.0808,-0.1717,0.0128,0.0049
1781766174176,-0.9171,0.0467,1.0937,0.014,-0.0073,0.1875
1781766174216,0.8165,-0.1389,1.0354,0.0287,0.011,0.0495
1781766174256,0.8286,0.2734,-1.2838,-0.0929,0.0458,-0.022
1781766174296,0.5135,0.1254,0.5693,-0.0629,-0.0189,0.0171
1781766174336,0.2611,-0.0924,0.6041,-0.0782,-0.2627,0.1142
1781766174376,-0.0467,-0.4623,0.3832,-0.1051,-0.1106,0.1155
1781766174416,-0.0172,-0.1942,0.8566,-0.1124,-0.0916,0.1197
1781766174456,0.2268,0.1877,-0.1147,-0.2822,-0.1643,0.058
1781766174496,-0.1161,-0.7216,-1.04,-0.5846,-0.3622,0.0189
1781766174536,-1.8451,-0.2965,-0.5946,-1.157,-0.5107,0.3598
1781766174576,-0.6225,0.2015,-0.7636,-1.8644,-0.7575,0.8112
1781766174616,-1.3919,2.2058,-0.8888,-2.0879,-0.3537,1.1209
1781766174656,1.1584,2.4117,1.97,-1.35,0.4172,0.5479
1781766174697,-2.0781,-2.3351,2.0159,-1.8167,0.4765,0.3018
1781766174737,2.3355,0.4612,0.3079,-1.8234,0.0116,0.3103
1781766174777,1.1815,0.3549,0.7397,-1.6518,-0.6164,0.4294
1781766174816,-0.3078,3.0726,1.0322,-1.5656,-0.7709,0.537
1781766174856,-1.5601,-0.7446,-0.877,-1.5217,-0.1998,0.6512
1781766174896,-1.1043,-0.8728,-0.3706,-1.7636,0.2315,0.168
1781766174936,0.3369,2.1624,-0.1556,-1.7623,0.1863,-0.0318
1781766174976,0.0958,0.884,-0.9246,-1.6047,0.0672,0.1014
1781766175016,-0.0712,0.757,-0.4967,-1.6017,-0.0263,0.1191
1781766175056,-1.1342,1.0112,-0.3584,-1.6163,0.1374,0.0263
1781766175096,-0.8742,-0.0206,-0.6706,-1.4948,0.1081,0.1399
1781766175136,0.6834,0.4542,-0.5594,-1.2749,-0.1625,0.1888
1781766175176,-0.3256,-0.2541,-0.88,-1.2394,-0.0257,0.113
1781766175216,0.1239,-0.1296,-0.657,-1.2468,0.099,0.0654
1781766175256,0.746,0.4304,-0.3211,-1.102,-0.0476,0.0
1781766175296,0.0262,0.7701,-0.3468,-0.9664,-0.0672,-0.0574
1781766175336,-0.3034,0.5117,-0.7498,-0.8399,-0.0654,-0.0159
1781766175376,-0.4493,0.3014,-0.6206,-0.7049,-0.0263,0.0147
1781766175416,-0.4786,0.4923,-1.0711,-0.496,0.033,0.0825
1781766175456,-0.5914,0.2496,-1.3216,-0.3787,0.0874,0.1448
1781766175496,-0.0943,0.1005,-1.9242,-0.1081,0.2175,0.1045
1781766175536,0.5144,0.3718,-1.8433,0.1973,0.2114,-0.0189
1781766175576,0.0369,0.5297,-2.0437,0.5895,0.2077,-0.1008
1781766175616,-0.6716,0.4242,-1.9339,0.9591,0.215,-0.1362
1781766175656,0.2233,0.1748,-1.3132,1.438,0.0855,-0.1448
1781766175696,-0.2847,-0.0447,-0.7121,1.8063,0.0147,-0.1258
1781766175737,-0.8679,-0.5502,-0.9039,2.08,-0.0702,-0.0586
1781766175776,-0.4317,-0.7735,-0.8776,2.2339,-0.1863,-0.0464
1781766175817,-0.2302,-0.3391,-0.3979,2.2382,-0.1796,-0.0922
1781766175856,0.2294,-0.1869,-0.0661,2.1863,-0.2028,-0.2272
1781766175896,0.6948,0.2158,0.5847,2.1521,-0.1998,-0.4508
1781766175936,0.3141,0.2447,0.6808,1.9859,-0.0195,-0.6536
1781766175976,0.037,0.1744,1.0492,1.901,0.2352,-0.6585
1781766176017,-0.2793,0.7685,1.2316,1.9102,0.2431,-0.6542
1781766176056,-0.2249,1.3269,1.4207,1.912,0.2486,-0.6591
1781766176097,0.1235,1.1093,1.0865,1.8619,0.0861,-0.7697
1781766176137,0.0885,0.8308,0.9206,1.7318,-0.182,-0.6573
1781766176176,-0.024,0.6605,0.802,1.6475,-0.3293,-0.6121
1781766176216,-0.5637,1.0656,0.6532,1.493,-0.1564,-0.4276
1781766176256,-0.8666,-0.0189,0.3913,1.2474,0.1148,-0.2095
1781766176297,0.0446,1.1127,-0.4283,0.9285,0.496,-0.3409
1781766176336,0.8567,0.462,-0.1612,0.6139,0.7208,-0.4154
1781766176376,-0.8256,0.285,0.8539,0.5186,0.8931,-0.2981
1781766176416,-0.0261,-0.3578,2.1718,0.4783,0.7868,-0.0031
1781766176456,2.4513,-1.7589,-0.028,-0.055,-0.3793,0.1967
1781766176496,1.3926,-1.0862,-3.5256,-0.5095,-0.5657,0.0177
1781766176536,1.0458,-0.4954,0.2585,-0.2669,-0.2804,-0.0495
1781766176576,0.0366,1.3,2.0947,0.0073,-0.215,0.0024
1781766176616,-1.4289,-0.1051,0.4061,0.193,0.1026,0.0935
1781766176656,-0.2377,-0.9716,-0.7536,0.1161,0.099,0.0464
1781766176696,0.4018,0.7917,0.2765,0.0312,0.2798,-0.1087
1781766176736,0.1248,-0.4844,-0.5097,-0.0837,0.2364,-0.0079
1781766176776,-0.5942,-0.7757,-0.2848,-0.1051,-0.19,0.1643
1781766176816,1.1266,0.4123,1.3153,-0.055,-0.0666,0.0483
1781766176856,0.8459,0.278,0.03,-0.2975,0.0409,0.0538
1781766176896,-0.1378,-0.7056,-1.0994,-0.6432,-0.4331,0.19
1781766176936,-0.2483,-1.3528,0.2925,-0.7489,-0.4606,0.314
1781766176976,-0.4874,0.9158,-0.6165,-1.3916,-0.3091,0.4423
1781766177016,-1.4276,0.2413,-1.818,-2.237,-0.4533,0.8375
1781766177056,-2.7384,2.166,1.6569,-1.7092,-0.7141,1.3751
1781766177096,5.1919,0.9773,1.3591,-1.3506,0.0867,0.6939
1781766177136,0.6607,2.2616,-0.8604,-1.6689,-0.1368,-0.0177
1781766177177,-1.8595,-5.3018,1.0863,-1.8357,0.4129,0.5376
1781766177216,-0.03,3.594,-0.2584,-1.4881,0.0935,0.4594
1781766177256,0.4397,4.1866,0.3406,-1.2987,-0.4459,0.573
1781766177296,-0.9994,-1.648,0.2335,-1.2364,-0.5461,0.708
1781766177336,-0.4293,0.1358,-0.8155,-1.4148,0.2584,0.4801
1781766177376,0.1993,1.4414,-0.2223,-1.4331,0.3983,0.1258
1781766177416,0.1602,0.228,-0.2317,-1.2804,-0.0061,0.3403
1781766177456,-0.9422,0.058,0.1588,-1.2981,0.0446,0.369
1781766177496,0.4764,0.6836,0.2104,-1.372,0.0275,0.2303
1781766177536,0.2109,0.2147,-1.3367,-1.3751,-0.1448,0.1863
1781766177577,0.3005,-0.4392,-0.5091,-1.339,0.0324,0.1161
1781766177616,0.9866,0.1103,-0.1036,-1.201,-0.1894,0.0147
1781766177656,-1.0054,-0.1347,-0.8098,-1.1044,-0.0354,0.2291
1781766177697,-0.0987,0.3894,-0.4959,-1.025,0.0898,0.256
1781766177736,0.2601,0.8392,-0.6896,-0.8179,-0.0165,0.157
1781766177776,-0.6896,0.8432,-0.5397,-0.6451,0.0464,0.0922
1781766177816,-0.7984,1.0204,-0.6834,-0.3684,-0.011,0.1252
1781766177856,-1.4074,0.5926,-0.4108,-0.0562,-0.0165,0.2578
1781766177896,-0.9087,-0.3752,-2.1018,0.0232,0.1643,0.2034
1781766177936,0.5986,-0.6593,-1.674,0.193,0.1448,-0.0391
1781766177976,0.0386,-0.827,-2.366,0.4862,0.2419,-0.256
1781766178016,-0.5457,-0.5386,-2.2331,0.7624,0.2572,-0.2706
1781766178056,-0.7614,-0.3862,-1.9112,1.2486,0.1429,-0.1484
1781766178096,-0.76,-0.4342,-1.1073,1.6182,0.0874,-0.1216
1781766178136,-0.5895,-0.6937,-1.5376,1.8393,0.0086,-0.1405
1781766178176,-0.077,-0.7037,-0.6227,2.0122,-0.0593,-0.1998
1781766178216,-0.9394,-0.7181,0.0984,2.0922,-0.121,-0.2053
1781766178256,0.1258,-0.5992,-0.3765,2.0763,-0.0935,-0.3439
1781766178296,0.6416,-0.2241,0.2985,2.1124,-0.044,-0.5907
1781766178336,0.2758,0.6869,0.2989,1.9786,0.1912,-0.7324
1781766178376,0.0286,0.3525,0.9641,1.9823,0.3335,-0.7361
1781766178416,-0.1149,1.3508,1.3168,2.0366,0.3317,-0.741
1781766178456,-0.6174,2.1876,1.3553,2.0189,0.2944,-0.7556
1781766178497,-0.6438,1.8223,1.1523,1.9065,0.2413,-0.6078
1781766178536,-0.8074,1.3404,0.6766,1.744,-0.077,-0.358
1781766178576,-0.72,1.328,-0.0953,1.361,-0.1924,-0.4032
1781766178616,0.1868,0.8808,-0.3917,0.9395,0.0733,-0.3421
1781766178656,1.0774,0.1324,-0.8197,0.7691,0.1643,-0.2425
1781766178697,0.6227,-0.4149,-0.1228,0.4447,0.11,-0.3848
1781766178736,-0.087,0.1773,0.1132,0.5253,-0.2334,-0.314
1781766178776,-0.2299,-0.2787,0.7514,0.6811,-0.1368,-0.2193
1781766178816,-0.8736,1.0841,1.4196,0.8369,-0.1442,-0.1191
1781766178856,-0.5283,0.8064,0.3066,0.7355,0.4246,-0.2376
1781766178897,-0.0084,-2.4719,-0.6199,0.3574,0.3134,0.0257
1781766178936,-0.5195,-1.2885,-2.1438,-0.1545,-0.4869,0.1857
1781766178976,-0.4308,0.7613,-0.635,-0.3152,-0.4239,0.055
1781766179016,0.5317,-0.2802,1.2029,0.0079,0.2932,-0.0696
1781766179056,-1.0578,0.2308,1.5587,0.1332,0.1955,0.0055
1781766179097,-0.0452,0.0765,0.4547,0.1778,0.1246,0.0446
1781766179136,0.6572,-0.3561,-0.4438,0.0336,0.0733,-0.0098
1781766179176,0.1712,-0.0367,-0.1924,-0.1319,0.0061,-0.0415
1781766179216,-0.6669,-0.6088,0.3639,-0.1521,-0.0318,0.0189
1781766179256,-0.5652,0.0734,0.401,-0.2474,0.135,0.1509
1781766179296,-0.1861,-0.7691,-0.303,-0.3018,0.11,0.1949
1781766179336,0.2752,-0.384,0.4091,-0.3855,-0.1619,0.1521
1781766179376,1.0337,0.8588,0.5184,-0.5333,-0.2395,0.1814
1781766179416,0.7386,-0.8544,-0.8087,-0.7343,-0.3403,0.1558
1781766179456,-1.2489,0.0013,0.4384,-1.0159,-0.4801,0.2517
1781766179496,0.5397,2.5037,0.6372,-1.3311,-0.2468,0.46
1781766179536,-0.6772,0.2078,-2.5902,-1.7959,-0.0452,0.879
1781766179576,-0.3485,-0.2445,1.9164,-1.7929,0.2853,0.5223
1781766179616,2.4494,3.5477,1.07,-1.9878,-0.0458,0.281
1781766179657,-1.7374,0.1945,-0.0858,-1.7953,-0.664,0.3592
1781766179696,-1.0079,-0.2421,2.0893,-1.7257,0.0849,0.8302
1781766179736,1.26,2.5909,-0.5383,-1.6493,-0.6426,0.5632
1781766179777,-0.1626,-0.4185,-0.2987,-1.5913,-0.182,0.653
1781766179817,-0.9697,0.7308,0.0572,-1.6249,0.0666,0.4924
1781766179856,-0.4285,1.2652,-0.3839,-1.543,-0.0953,0.4472
1781766179896,-1.1457,0.8822,-0.4005,-1.529,0.0232,0.3543
1781766179936,0.4451,0.5402,-0.0531,-1.4355,-0.044,0.3586
1781766179976,-0.8615,0.6686,-0.5963,-1.3665,-0.1228,0.4221
1781766180017,-0.2491,0.2127,-0.6485,-1.3274,-0.0342,0.3268
1781766180056,-0.359,0.3015,-0.7986,-1.4154,0.1387,0.1808
1781766180096,-0.2331,-0.4461,-0.5696,-1.2547,0.0531,0.2095
1781766180136,0.6276,-0.1716,-0.2461,-1.1307,-0.1869,0.2083
1781766180177,-0.5051,0.3382,-2.2441,-1.1967,-0.0562,0.0953
1781766180216,-0.4404,0.2702,-1.3329,-1.0318,0.0195,-0.0153
1781766180256,1.0006,-0.4094,-1.0957,-0.9548,0.1393,-0.0751
1781766180296,-0.2448,1.2496,-1.696,-0.573,0.124,-0.1961
1781766180336,-0.9927,1.3893,-1.5618,-0.0666,0.0849,-0.1735
1781766180376,-0.7113,1.1333,-2.7576,0.3775,0.0159,-0.1203
1781766180416,-1.3736,-0.1277,-2.174,0.8222,0.0336,-0.0531
1781766180456,-0.0004,-0.5479,-1.8468,1.0342,0.0128,-0.0531
1781766180496,0.5171,-0.52,-1.7375,1.2578,-0.1344,-0.135
1781766180536,-0.2119,-0.2703,-0.8453,1.4343,-0.1949,-0.1185
1781766180576,-0.9516,0.0761,-1.4264,1.6493,-0.0275,-0.0941
1781766180616,-0.4322,-0.3886,-0.7175,1.7819,-0.0892,-0.1851
1781766180656,0.2167,-0.4886,-0.6957,1.7972,-0.0134,-0.3286
1781766180696,0.5165,-0.5107,-0.2541,1.6719,0.0623,-0.3897
1781766180737,-0.6686,-0.3539,-0.023,1.7214,0.0812,-0.4539
1781766180776,0.204,-0.2329,-0.0072,1.7184,0.1454,-0.5699
1781766180816,0.6519,-0.4954,0.7587,1.7593,0.2572,-0.6243
1781766180856,0.5971,0.2149,0.294,1.7257,0.2963,-0.7239
1781766180896,0.3653,0.9575,1.0969,1.8943,0.35,-0.8088
1781766180936,-0.44,1.1419,1.2509,1.9939,0.391,-0.7727
1781766180976,0.0086,1.2105,1.5013,1.9554,0.2761,-0.628
1781766181016,0.0999,1.8394,1.4212,1.9248,0.1582,-0.4288
1781766181056,0.2506,1.0266,0.1672,1.7526,0.1894,-0.3176
1781766181096,-0.9509,0.3179,0.6172,1.3775,0.4624,-0.3103
1781766181136,1.0325,1.5914,0.5157,1.0739,0.4184,-0.4404
1781766181176,1.3687,1.8846,0.1136,0.7324,0.4563,-0.441
1781766181216,-0.6003,0.7873,0.6808,0.4319,0.5779,-0.2462
1781766181256,0.304,-1.7177,2.0658,0.4282,0.6707,-0.0794
1781766181296,1.2102,-0.9187,0.0952,0.179,-0.0733,0.1503
1781766181336,0.7464,0.1997,-2.991,-0.1179,-0.474,0.0428
1781766181376,-0.0384,-0.7005,0.0663,-0.1955,-0.3574,-0.0922
1781766181416,-0.3309,0.9922,2.0003,0.0073,-0.2187,-0.0116
1781766181456,-1.4654,-0.3553,0.2355,0.1881,-0.0538,0.0904
1781766181497,0.548,-0.1516,0.2037,0.1497,0.1875,-0.0318
1781766181536,0.3502,-0.1358,-0.2534,0.0373,0.2346,-0.0226
1781766181576,-0.1229,-0.5121,-0.7658,-0.091,-0.0867,0.0244
1781766181616,0.0667,0.236,0.4981,-0.1717,-0.2156,0.0593
1781766181656,0.301,-0.4032,0.0871,-0.1784,0.1368,0.0348
1781766181696,0.4058,-0.2173,0.1586,-0.2138,-0.0617,0.0574
1781766181736,0.1544,0.3654,-0.2235,-0.3977,-0.3085,0.1057
1781766181776,0.111,-1.1968,-0.4524,-0.4117,-0.2761,0.16
1781766181816,-0.502,1.0371,0.6771,-0.5596,-0.2847,0.2224
1781766181856,0.2879,0.6647,0.2138,-0.9377,-0.2382,0.4826
1781766181896,-0.2193,-0.4833,-2.4387,-1.7269,-0.8063,0.8314
1781766181936,0.9462,1.6037,1.6702,-1.397,0.0238,0.4643
1781766181976,1.4884,3.3669,2.083,-1.857,0.6396,0.0929
1781766182016,-0.0583,-1.8756,-0.3469,-1.4166,-0.1478,0.4606
1781766182056,-1.1233,-0.2099,1.4833,-1.7489,0.6921,0.6799
1781766182097,2.0672,2.1034,0.8826,-1.4166,-0.4496,0.4875
1781766182136,-0.4781,1.3481,0.7672,-1.4685,-0.4814,0.5455
1781766182176,-1.521,0.7731,-0.1861,-1.6402,-0.3714,0.6677
1781766182216,-0.1982,0.1493,-0.5659,-1.6316,-0.1411,0.361
1781766182257,-1.4201,1.606,-0.2399,-1.5394,0.0531,0.3977
1781766182296,0.9311,0.5231,0.5096,-1.3983,-0.3549,0.4893
1781766182336,-1.0158,0.9509,-0.4115,-1.3445,-0.2431,0.4068
1781766182377,0.1877,-0.2071,-0.8935,-1.4905,0.08,0.3751
1781766182416,-0.0725,0.0813,-0.1473,-1.3531,0.1558,0.2401
1781766182456,0.3523,0.0381,-0.4941,-1.3641,0.1423,0.1998
1781766182496,0.2536,0.0303,-0.7299,-1.2278,-0.0305,0.2059
1781766182536,-1.0233,-0.4245,-1.3944,-1.2633,0.1478,0.1484
1781766182576,0.0721,-0.1042,-1.0674,-1.0831,0.1521,0.0837
1781766182616,0.827,-0.0424,-1.1058,-1.0244,0.0312,-0.0751
1781766182656,0.0361,-0.3757,-0.702,-0.8894,0.0519,-0.1497
1781766182697,-0.4475,-0.1739,-0.699,-0.6707,-0.0367,-0.0892
1781766182736,-0.6216,0.51,-1.1699,-0.3971,0.0232,-0.069
1781766182776,-0.8621,0.9219,-0.9581,-0.0898,0.0238,0.014
1781766182816,-0.3615,0.5752,-2.3777,0.2059,-0.0012,-0.0024
1781766182856,0.0497,-0.3528,-1.8481,0.4862,0.0825,-0.0153
1781766182897,-0.3361,-0.2236,-1.3277,0.7886,0.0721,0.0397
1781766182936,-0.1005,-0.354,-1.5449,1.0189,0.0397,-0.011
1781766182976,0.1062,-0.4946,-0.9593,1.2645,-0.0782,-0.066
1781766183016,-0.4945,-0.7679,-0.8637,1.3781,0.0006,-0.0855
1781766183056,0.4097,-0.7033,-1.021,1.5351,-0.0782,-0.1368
1781766183096,0.7775,-0.2798,-0.0553,1.6047,-0.3103,-0.2523
1781766183136,0.2053,-0.1421,-0.4574,1.5577,-0.2749,-0.3561
1781766183177,-0.308,-0.3968,0.1041,1.5663,-0.1503,-0.427
1781766183217,0.0198,0.0353,-0.1451,1.5687,0.0287,-0.5455
1781766183256,0.1012,0.1607,0.0524,1.5534,0.0739,-0.5938
1781766183296,-0.4231,-0.2198,0.2859,1.6188,0.2242,-0.5143
1781766183336,0.0323,-0.029,0.7621,1.6426,0.3231,-0.562
1781766183376,0.0045,1.0473,1.1839,1.689,0.3476,-0.5993
1781766183416,-0.3382,1.2483,1.076,1.7611,0.3543,-0.6457
1781766183456,-0.8898,0.7823,1.3166,1.8393,0.3128,-0.5913
1781766183496,0.4823,0.675,0.6104,1.7849,0.204,-0.5534
1781766183536,-0.9469,0.8611,0.9547,1.7129,0.0843,-0.5186
1781766183576,-0.2185,0.455,0.3164,1.6304,0.1277,-0.3543
1781766183616,-0.5916,0.5278,0.7224,1.3408,0.1155,-0.2877
1781766183656,0.2128,1.3393,0.1297,0.9982,0.1533,-0.3323
1781766183697,0.8157,2.0101,-0.0736,0.7055,0.1411,-0.295
1781766183736,2.4033,-0.898,-0.1431,0.6426,0.3952,-0.3928
1781766183776,-0.4911,-1.5868,0.4704,-0.0183,-0.1851,-0.0654
1781766183816,-0.2248,-0.7177,-0.107,-0.1662,-0.1674,0.168
1781766183856,0.9383,-0.2269,0.0956,0.0128,-0.3677,0.0806
1781766183897,1.0237,0.7691,-6.0815,-0.4966,-1.8686,-0.0953
1781766183936,-1.3613,-1.41,-0.9616,0.3103,0.942,-0.2572
1781766183976,-1.063,0.9917,1.7555,0.2511,0.2138,-0.0055
1781766184016,-0.095,0.913,0.9033,0.1472,0.2553,0.0831
1781766184056,0.0919,-1.6329,-0.1912,0.0458,0.0733,0.0354
1781766184097,0.3282,0.0772,0.1491,-0.0794,0.2077,-0.0079
1781766184136,-0.0272,-0.1449,0.2658,-0.0861,0.2914,-0.0611
1781766184176,-0.2759,-0.0266,0.5437,0.1576,-0.4569,0.1429
1781766184216,0.4747,-0.2148,-0.8209,-0.0324,0.0709,0.0977
1781766184256,0.9241,-0.7277,-0.3042,-0.3048,0.2181,0.0385
1781766184297,0.686,0.0912,0.1622,-0.4246,-0.088,0.0086
1781766184336,0.0589,-0.2917,-0.2308,-0.7092,-0.2248,0.0379
1781766184377,-0.592,-0.3133,0.2317,-0.9908,-0.4783,0.3464
1781766184416,-0.763,0.2825,-0.6083,-1.6273,-0.372,0.7514
1781766184457,-1.901,2.4034,0.4925,-1.7306,0.0483,0.9786
1781766184496,1.3576,0.7062,1.0913,-1.1332,0.796,0.8974
1781766184536,1.5277,-1.4898,1.7485,-1.5467,0.0837,0.4355
1781766184576,3.9455,4.5848,0.3281,-1.4429,-0.2401,-0.295
1781766184616,-0.7351,-5.5507,2.4106,-1.5882,-0.5883,0.3995
1781766184656,0.0532,2.2533,3.1103,-1.215,-0.7483,0.3378
1781766184697,-0.1538,2.015,-1.7174,-1.551,-0.5089,0.4136
1781766184736,-2.6705,-4.3214,1.3417,-1.5614,-0.0214,0.3384
1781766184776,1.6522,2.5359,1.2741,-1.3372,-0.1399,0.2388
1781766184817,-1.2426,1.4378,-1.1868,-1.3219,-0.2602,0.3946
1781766184856,-0.8298,-0.7866,0.1269,-1.4856,0.1387,0.5339
1781766184896,1.0599,1.2259,0.036,-1.4227,-0.0122,0.3335
1781766184936,-0.3722,0.4007,-0.268,-1.4368,0.0428,0.3024
1781766184976,-0.5721,-0.4755,0.0057,-1.3635,-0.1436,0.5785
1781766185016,0.9163,-0.0576,-0.8022,-1.438,-0.2786,0.3225
1781766185056,-0.868,-0.3361,-0.9296,-1.4025,-0.0104,0.1735
1781766185097,-1.0652,-0.3205,-1.2025,-1.3818,0.08,0.1417
1781766185136,0.8104,0.0515,-0.2521,-1.2058,-0.1057,0.0837
1781766185176,-0.5134,0.2875,-0.5484,-0.8454,-0.1173,0.0464
1781766185217,-0.8364,-0.2986,-1.5302,-0.6164,0.047,0.1381
1781766185256,-0.4049,-0.1694,-1.2279,-0.1619,-0.0611,0.1772
1781766185297,0.313,-0.4015,-2.4558,0.0623,-0.1081,0.0226
1781766185336,-0.2345,-0.6663,-2.3179,0.3403,0.0953,-0.1277
1781766185376,-0.076,-0.1313,-1.9355,0.6646,0.1594,-0.1607
1781766185416,0.0806,-0.1795,-1.5199,1.0073,0.0116,-0.077
1781766185456,-0.0815,-0.3783,-1.6945,1.2914,0.0867,-0.1002
1781766185496,-0.4868,-0.6414,-1.1485,1.4331,0.2242,-0.1649
1781766185536,0.2465,-0.6099,-0.9614,1.4807,0.0867,-0.2089
1781766185576,0.5878,-0.5075,-0.1336,1.543,-0.0208,-0.2388
1781766185616,-0.2189,-0.3429,0.4018,1.6457,-0.0709,-0.2731
1781766185656,0.0622,-0.5108,0.6375,1.6622,-0.0458,-0.3855
1781766185697,0.5144,-0.1396,0.6429,1.6225,0.0635,-0.598
1781766185737,-0.0414,0.0278,0.6405,1.5999,0.1234,-0.551
1781766185776,-0.9205,0.1162,0.462,1.7049,0.1741,-0.3696
1781766185816,-0.3719,0.0508,0.4823,1.7575,0.4789,-0.4484
1781766185856,-0.0876,0.0868,0.9738,1.7287,0.4264,-0.6579
1781766185896,0.7909,0.7145,1.4416,1.6811,0.1784,-0.5657
1781766185937,0.5998,0.6279,1.419,1.6047,0.0617,-0.6787
1781766185976,0.3023,0.8987,1.0627,1.4746,0.0147,-0.6237
1781766186016,0.1355,0.263,1.4463,1.452,0.0134,-0.3806
1781766186056,-0.9723,0.8018,1.0027,1.1942,0.146,-0.2694
1781766186096,-0.7288,-0.0315,0.873,1.0776,0.1894,-0.2663
1781766186136,0.1326,0.3317,0.7419,0.868,0.3494,-0.2822
1781766186176,0.444,0.0134,0.8951,0.6927,0.1985,-0.259
1781766186216,0.1729,0.5939,0.9701,0.587,0.0861,-0.1442
1781766186257,-0.1534,0.2327,-0.0117,1.383,-1.4667,-0.0935
1781766186297,1.0277,-1.0231,-1.0807,0.3537,0.025,-0.1936
1781766186336,0.1618,-0.9537,-0.388,-0.0654,0.5828,-0.2107
1781766186376,-3.4573,0.0928,-0.7462,-0.0819,0.2114,-0.0147
1781766186416,0.9836,-0.1191,0.1913,0.0171,0.0593,-0.0049
1781766186457,0.0773,-0.1476,0.251,-0.0079,-0.0006,-0.0079
1781766186496,0.2101,-0.0256,0.1309,-0.0635,0.0574,-0.0348
1781766186537,0.105,-0.4141,0.7145,-0.0672,-0.0556,0.0287
1781766186576,0.551,0.3273,0.5206,-0.0635,-0.1747,0.0104
1781766186617,0.2045,0.1021,0.1603,-0.0562,-0.0678,0.0183
1781766186657,0.7353,-0.4836,0.5008,-0.1014,-0.2523,0.011
1781766186697,0.2123,0.5444,-0.1096,-0.2254,-0.2566,0.0507
1781766186736,0.0739,-1.1712,-0.2617,-0.3476,-0.3732,0.1197
1781766186776,0.0422,0.2084,0.2794,-0.4331,-0.3708,0.1148
1781766186817,-0.1431,0.4916,0.2635,-0.6695,-0.201,0.0996
1781766186857,-0.0274,-0.3002,-1.4116,-0.9432,-0.2395,0.2731
1781766186897,-2.2735,0.1917,0.5686,-1.0611,-0.2211,0.4875
1781766186937,0.5752,1.648,0.4927,-1.3897,0.3433,0.4001
1781766186976,-0.226,1.154,-0.2846,-0.9432,0.0159,0.7929
1781766187017,-0.1798,0.0777,-0.5856,-1.3824,0.5895,0.5889
1781766187056,-0.8892,-0.2526,1.344,-1.4154,0.1912,0.4258
1781766187096,2.2791,2.7737,0.109,-0.9273,0.2547,0.6689
1781766187137,-0.2162,-1.0262,-0.0105,-1.4368,-0.2663,0.5064
1781766187176,1.5217,1.4997,1.2515,-0.9615,-0.4875,0.7086
1781766187216,-0.2359,0.0055,-0.2934,-1.215,-0.3372,0.4313
1781766187256,-0.7246,0.3274,-0.4017,-1.2749,-0.0092,0.2443
1781766187296,0.1861,0.0938,0.6753,-1.1148,-0.171,0.3885
1781766187336,-0.0092,1.0415,-0.1735,-1.2138,-0.2938,0.4746
1781766187376,0.4283,-0.0225,-0.1271,-1.2614,-0.1704,0.2993
1781766187416,-0.7967,-0.1457,0.6971,-1.3073,-0.0202,0.2248
1781766187456,-0.2598,0.7095,0.1738,-1.3201,-0.0501,0.226
1781766187496,0.1138,0.1035,0.2962,-1.2052,-0.2615,0.2743
1781766187536,0.0316,0.2979,-0.9768,-1.2327,-0.1894,0.2443
1781766187577,-1.1681,0.2487,-0.8442,-1.27,0.0684,0.2248
1781766187616,-0.1552,1.0313,-1.1123,-1.281,0.1142,0.1167
1781766187656,0.3466,-0.1465,0.3273,-1.0537,-0.1588,0.2107
1781766187696,-0.3502,0.2823,-0.6138,-0.9163,-0.3464,0.2822
1781766187736,0.439,-0.5494,-0.7836,-0.9169,-0.0379,0.1717
1781766187776,0.3597,0.2909,-1.0946,-0.7129,0.0715,0.0593
1781766187816,0.1678,0.0302,-1.5146,-0.5791,0.0519,0.047
1781766187856,-0.3114,0.2313,-1.5054,-0.2883,0.146,-0.0238
1781766187896,0.6063,-0.5025,-1.6206,-0.1136,0.0446,-0.157
1781766187936,0.0901,-0.5717,-2.1692,0.2657,0.0006,-0.1912
1781766187976,0.3215,-0.7584,-1.8926,0.504,0.1307,-0.1955
1781766188016,-0.3431,0.0617,-1.5239,0.796,0.182,-0.2077
1781766188057,-0.7634,0.1658,-1.3581,1.1161,0.1381,-0.11
1781766188096,-1.1116,-0.1852,-0.6794,1.3378,0.1124,-0.0507
1781766188136,-0.5356,0.1147,0.058,1.4783,0.1161,-0.0043
1781766188177,0.3287,0.1049,-0.6913,1.6017,-0.0715,-0.0428
1781766188216,0.2185,-0.4191,0.1417,1.5748,-0.2199,-0.0819
1781766188256,-0.2655,0.4023,0.0702,1.5363,-0.1045,-0.1967
1781766188296,0.2909,0.4375,0.0887,1.5345,0.0324,-0.4349
1781766188336,-0.0244,-0.126,0.1843,1.4306,0.2993,-0.587
1781766188376,0.1678,0.2666,0.7126,1.3977,0.3268,-0.5596
1781766188416,0.0186,0.8243,0.7551,1.3592,0.3317,-0.5596
1781766188456,-0.9889,0.7715,1.3612,1.449,0.2468,-0.5296
1781766188496,-0.1986,0.9161,0.6615,1.3463,0.204,-0.5278
1781766188536,0.1112,0.8423,0.9354,1.3592,0.2346,-0.5296
1781766188576,0.5487,0.7285,0.2629,1.2065,0.1466,-0.5877
1781766188616,0.789,0.3685,0.4542,1.1845,-0.1503,-0.5608
1781766188657,0.8697,0.1616,0.2958,1.0751,-0.1582,-0.6384
1781766188696,-0.3523,-0.3231,0.7605,1.1674,-0.223,-0.5327
1781766188737,-1.392,-0.1377,0.3543,2.2657,-0.113,-1.0452
1781766188776,-0.361,-5.296,0.5253,1.0208,-0.3048,-0.3543
1781766188816,-2.1677,-0.0888,0.0012,1.4416,-0.0831,-0.2272
1781766188857,-0.9493,3.3828,0.4017,0.9462,0.5449,-0.3745
1781766188897,0.6336,1.6891,0.5918,0.7324,0.5486,-0.0825
1781766188937,2.7956,-1.4967,-0.8661,0.5296,0.8082,-0.1906
1781766188977,0.362,-1.1752,-1.3554,-0.1698,0.0831,0.0189
1781766189016,-0.6718,-0.9564,0.2817,-0.2486,0.0788,0.0678
1781766189056,1.2004,-0.3105,1.5291,-0.0556,0.3183,-0.0098
1781766189096,-0.0632,0.7523,0.2256,-0.0073,0.3751,0.014
1781766189136,-0.3688,0.3739,0.556,0.0611,-0.1008,0.0079
1781766189176,0.7319,0.1737,0.5926,0.0501,-0.1234,-0.0336
1781766189216,0.2254,-0.4932,-0.4378,-0.0397,-0.0806,0.058
1781766189257,-0.3331,-0.3307,-0.1962,-0.2181,-0.2602,0.1399
1781766189297,0.3741,-0.3673,0.2343,-0.4233,-0.0562,0.1014
1781766189336,-0.0776,-0.4413,-0.1257,-0.4447,-0.2053,0.1839
1781766189376,0.0649,0.217,0.3763,-0.7575,-0.2957,0.2773
1781766189416,0.097,0.6465,-0.2208,-1.3793,-0.3195,0.4691
1781766189456,-2.0462,-1.3408,-1.3837,-1.8943,-0.317,1.2175
1781766189496,1.4383,2.5598,1.8143,-2.0061,0.2694,0.744
1781766189536,1.299,5.8311,0.8327,-1.5846,0.306,0.3274
1781766189577,-1.5371,-6.8675,1.2031,-1.5791,0.0067,0.7416
1781766189617,3.5286,2.1546,2.0527,-1.5443,-0.3042,0.3244
1781766189657,2.1943,4.6339,0.1816,-1.3934,-1.2071,0.2859
1781766189698,-3.9882,-4.2562,-0.0494,-1.5986,-0.2773,0.6188
1781766189736,-0.5388,1.4991,-0.897,-1.5681,0.0452,0.5278
1781766189777,-0.6693,2.8727,0.0829,-1.62,0.1735,0.372
1781766189816,-1.2247,0.3462,-0.8796,-1.7617,0.2926,0.1552
1781766189856,1.0446,0.3009,0.0311,-1.606,-0.1045,0.2566
1781766189898,0.2556,2.1074,-0.3289,-1.6793,-0.2926,0.1301
1781766189936,-1.5119,-0.1652,-0.7288,-1.722,0.1888,0.0397
1781766189976,-1.2198,0.4911,-0.8664,-1.6744,0.3464,-0.0153
1781766190016,1.5433,0.8387,-0.2209,-1.5406,0.1588,-0.1717
1781766190056,-0.6455,-0.7089,-0.5051,-1.4227,0.058,-0.1063
1781766190098,-0.4983,0.3004,-0.908,-1.1912,-0.0996,0.0434
1781766190136,-0.2058,0.0084,-0.4645,-0.9737,-0.1875,0.0269
1781766190176,-0.5579,0.0066,-1.3086,-0.9151,-0.0031,0.0641
1781766190216,0.2896,0.3392,-0.8637,-0.7593,0.0446,-0.0299
1781766190256,-0.3705,0.595,-0.9293,-0.5932,0.0287,-0.0421
1781766190298,-0.3521,0.3202,-0.5922,-0.4233,0.0299,-0.0079
1781766190336,0.0814,0.1457,-1.4426,-0.2468,0.1607,-0.0018
1781766190376,0.0886,0.3139,-1.4107,-0.0483,0.0806,-0.0079
1781766190416,0.2446,0.4523,-1.4235,0.2938,0.08,-0.0305
1781766190456,0.2111,0.291,-2.1767,0.6298,0.0849,-0.0715
1781766190496,-0.3278,0.2043,-1.8312,0.9493,0.1051,-0.0464
1781766190536,0.525,0.2043,-0.8324,1.2816,0.0733,-0.0825
1781766190576,-0.1169,-0.2276,-0.9628,1.5137,0.0452,-0.1063
1781766190616,0.0806,-0.5079,-0.8908,1.6622,0.0147,-0.1222
1781766190656,-0.1468,-0.7666,-0.3665,1.8778,-0.0788,-0.0776
1781766190696,-0.12,-0.4707,-0.7598,1.9273,-0.1368,-0.0177
1781766190736,-0.1407,-0.2115,-0.4025,1.9816,-0.1313,-0.0165
1781766190776,0.2914,0.3174,0.0268,1.9254,-0.168,-0.0696
1781766190816,0.3933,-0.0385,0.7344,1.8778,-0.1063,-0.2425
1781766190856,0.4244,0.0812,0.8052,1.7972,-0.0379,-0.339
1781766190896,0.9177,0.3853,0.5173,1.6927,-0.0421,-0.4117
1781766190936,-0.2039,0.4533,1.3134,1.7507,-0.047,-0.3897
1781766190976,-0.0377,0.1896,0.9468,1.7843,0.1692,-0.5241
1781766191016,0.3762,0.389,0.9342,1.7642,0.2022,-0.6506
1781766191057,-0.5364,0.5884,1.0531,1.7996,0.2627,-0.7013
1781766191096,-0.0718,0.2159,1.0988,1.9059,0.2944,-0.7697
1781766191136,-2.4896,0.0326,1.5286,1.9218,0.2315,-0.5657
1781766191176,-1.1868,1.8356,0.9054,1.6426,0.1539,-0.4368
1781766191216,-0.615,1.2877,0.3513,1.0715,0.3635,-0.4355
1781766191256,-0.493,0.4754,0.5696,0.9481,0.5974,-0.3024
1781766191296,1.7259,-0.184,0.5418,0.653,0.7068,-0.3299
1781766191336,0.6942,-0.7046,0.0674,0.1063,0.0983,-0.0177
1781766191376,1.933,-3.0064,-0.4642,-0.1808,-0.2755,0.1087
1781766191416,0.3536,1.1314,0.7045,-0.2541,-0.4905,0.0318
1781766191456,0.3181,0.8888,0.571,-0.0843,0.1625,-0.102
1781766191496,-1.3796,-1.1038,0.5454,0.0757,0.0012,-0.0244
1781766191537,-0.1502,0.8025,1.3075,0.1674,0.0086,0.025
1781766191576,0.4611,-0.3681,-0.7138,0.0916,0.2169,-0.0257
1781766191616,-0.4773,-0.4555,-0.4161,-0.0696,-0.0061,-0.0397
1781766191656,-0.1631,0.1072,0.533,-0.0599,-0.0373,0.0086
1781766191697,-0.2662,-0.325,-0.1865,-0.0458,-0.0189,0.0403
1781766191736,-0.1285,0.3185,0.538,0.0159,0.025,-0.0073
1781766191777,0.4153,0.0543,0.4201,0.0037,0.1173,-0.0299
1781766191816,0.0057,-0.6103,-0.5469,-0.0452,-0.0415,-0.0134
1781766191857,-0.1778,0.4096,0.2662,-0.0922,0.0067,0.0391
1781766191896,0.3852,-0.3038,0.2494,-0.2211,0.0831,0.055
1781766191937,0.8869,-1.3414,-0.824,-0.4386,-0.1252,0.0092
1781766191976,-0.0198,0.1946,0.2186,-0.5461,-0.3891,0.113
1781766192017,0.6921,0.4177,0.1089,-0.9957,-0.0556,0.0654
1781766192057,-0.7085,-0.73,-0.3801,-1.7489,-0.4936,0.617
1781766192096,-1.572,1.0985,1.0329,-1.6096,-0.1998,0.9774
1781766192136,-0.2802,4.2247,1.1825,-1.5461,0.2352,0.7129
1781766192176,1.0745,-2.2771,-1.1498,-1.5681,0.3244,0.5192
1781766192217,0.1126,-1.5745,2.0183,-1.8534,0.1167,0.6078
1781766192256,2.6626,3.5272,2.6786,-1.2449,-0.088,0.2443
1781766192297,1.473,2.2514,-4.3191,-1.8931,-0.876,0.347
1781766192337,-1.8372,-4.953,1.301,-1.8216,-0.3848,0.5284
1781766192376,0.5306,4.935,2.6708,-1.3146,0.0605,0.091
1781766192417,-1.7431,2.4333,-4.7676,-1.9804,-0.3005,0.2798
1781766192456,-0.1764,-4.1254,0.405,-1.6585,0.1839,0.2346
1781766192497,1.5176,3.2177,0.832,-1.7086,-0.0837,-0.0348
1781766192536,-1.6404,0.4865,0.4329,-1.4105,-0.2987,0.201
1781766192576,-1.149,-0.725,-1.2918,-1.5559,0.0073,0.314
1781766192616,0.2856,0.745,-0.1316,-1.4569,-0.2443,0.2291
1781766192656,-0.2528,-0.2547,-0.4264,-1.2938,-0.1655,0.1613
1781766192697,-0.5603,-0.4752,-0.715,-1.2889,0.1246,0.2053
1781766192736,0.8373,-0.4918,-0.7806,-1.2333,-0.0501,0.0782
1781766192776,0.845,0.2607,-0.8933,-1.102,-0.0831,0.058
1781766192816,-0.8294,0.297,-0.8941,-0.9352,0.1356,-0.0538
1781766192856,-0.799,0.4844,-1.2404,-0.7666,0.3879,-0.0421
1781766192897,-0.6064,0.5668,-0.7299,-0.5345,0.2889,-0.0195
1781766192936,-0.2813,0.532,-0.7235,-0.1362,0.0122,0.0489
1781766192976,-1.0106,0.4168,-1.2851,0.1826,0.0214,0.1136
1781766193016,-0.3457,0.2666,-2.45,0.4508,0.1436,0.0458
1781766193056,0.6351,0.1284,-2.0168,0.7495,0.1662,-0.1619
1781766193096,0.6857,-0.4908,-1.724,0.854,0.3018,-0.2181
1781766193136,0.001,-0.2065,-0.8519,1.1264,0.223,-0.2028
1781766193176,-0.709,-0.1761,-0.534,1.3091,0.1552,-0.113
1781766193216,-0.7696,-0.1053,-0.1264,1.5498,0.0513,-0.0244
1781766193256,-0.7578,-0.1111,-0.1718,1.6994,-0.0092,0.047
1781766193297,-0.3695,-0.2801,-0.4865,1.8021,-0.0299,0.0513
1781766193337,-0.2974,-0.2844,0.213,1.8216,-0.0996,0.036
1781766193376,-0.2994,-0.111,0.2497,1.8558,-0.1509,0.0299
1781766193416,0.0362,0.002,0.0039,1.7966,-0.0519,-0.121
1781766193456,0.5335,-0.3793,0.7365,1.7226,-0.0312,-0.3641
1781766193496,0.2993,-0.7655,1.0095,1.6005,0.1051,-0.3122
1781766193536,0.1354,-0.2654,0.8408,1.6237,0.1497,-0.2584
1781766193576,0.296,-0.2988,1.2459,1.6286,0.2071,-0.3787
1781766193616,-0.2392,-0.2564,1.7759,1.6664,0.2505,-0.3409
1781766193656,-0.9741,0.2519,1.4125,1.73,0.1869,-0.0593
1781766193697,0.3804,0.6774,1.3037,1.6231,0.2077,-0.2657
1781766193736,1.0573,0.2689,1.0796,1.4551,0.1619,-0.4502
1781766193776,0.9083,0.8001,1.0131,1.2834,0.1106,-0.4704
1781766193816,-0.4275,0.8685,1.118,1.1179,0.27,-0.4288
1781766193857,-0.6042,1.0589,0.8176,0.8943,0.3396,-0.394
1781766193897,-0.037,0.9078,0.0828,0.6579,0.3732,-0.3861
1781766193937,0.6346,-0.431,0.1573,0.6738,0.2969,-0.3231
1781766193976,0.5438,-0.616,0.5433,0.4887,0.2523,-0.2107
1781766194016,-0.1591,-0.3146,1.1919,0.2419,0.1558,-0.0941
1781766194056,0.8577,-0.8881,-0.156,-0.033,0.0342,0.1264
1781766194097,0.8464,-0.4205,-1.7125,-0.1301,-0.1491,0.1246
1781766194136,0.5536,0.2839,0.2568,-0.1961,-0.047,-0.0214
1781766194177,0.2757,0.1951,1.486,-0.0764,-0.3977,-0.0165
1781766194216,-0.7216,0.0322,-0.0168,0.0122,-0.3293,0.0403
1781766194256,-0.1838,-0.0856,0.2583,0.0788,0.0513,-0.0513
1781766194297,-0.1171,0.1353,0.1067,0.055,-0.0574,-0.0379
1781766194337,-0.2712,-0.3045,-0.382,0.0043,-0.3274,0.0299
1781766194376,-0.0106,-0.0815,0.0021,-0.0275,-0.3696,-0.0177
1781766194417,-0.4809,-0.0316,-0.3252,0.0232,-0.1203,-0.0825
1781766194457,-0.9353,0.1869,-0.0211,0.121,-0.0464,-0.0727
1781766194497,-0.3912,0.1848,0.1461,0.1643,0.0751,-0.0562
1781766194536,0.1579,-0.0463,-0.2097,0.1576,0.088,-0.0519
1781766194577,0.3648,-0.0166,-0.428,0.0861,-0.0788,-0.069
1781766194616,0.1092,-0.1861,0.1578,0.0177,-0.066,-0.066
1781766194657,-0.0999,-0.2087,-0.0148,-0.0281,0.0177,-0.0513
1781766194697,-0.6506,-0.0653,0.2702,-1.0886,-2.1637,0.2975
1781766194736,-0.2415,-1.4033,-0.264,-0.055,0.2382,0.0892
1781766194777,1.0104,-0.4093,0.4108,-0.537,0.1057,0.0367
1781766194816,0.7724,-0.6285,0.6166,-0.6964,-0.1252,0.0812
1781766194856,1.4801,0.1271,0.7272,-1.0427,-0.328,0.3176
1781766194897,-0.8009,1.7155,-1.1342,-2.2144,-0.6854,0.8283
1781766194936,-0.6228,0.4278,0.3138,-1.7391,-0.328,0.8228
1781766194976,1.9843,1.8253,3.7346,-1.708,0.3983,0.5907
1781766195016,-0.0057,2.5261,0.9609,-1.5919,-0.1093,0.256
1781766195056,-1.2692,-2.669,2.1304,-1.6066,0.1985,0.7947
1781766195096,1.0888,0.7505,1.0997,-1.6341,-0.1478,0.4581
1781766195136,2.2284,2.1826,0.4717,-1.3763,-0.8125,0.5058
1781766195177,-2.3716,-2.7516,0.5179,-1.4746,-0.4105,0.7098
1781766195217,-0.0917,0.685,0.1355,-1.6066,0.2468,0.256
1781766195257,1.0257,0.0117,0.4767,-1.5809,0.0721,0.1362
1781766195297,0.0577,0.9073,-0.2198,-1.609,-0.1301,0.2175
1781766195336,0.6988,0.434,0.1256,-1.7391,0.0312,0.0183
1781766195376,-0.2732,0.4593,0.0893,-1.7996,0.1368,-0.0855
1781766195416,-0.1255,-0.1036,0.026,-1.6023,-0.0605,0.0189
1781766195456,-1.0021,0.7972,-0.7015,-1.5198,0.0458,0.0904
1781766195496,0.0533,0.461,-0.5655,-1.3818,-0.0586,0.0648
1781766195536,0.3029,0.304,-0.6415,-1.1411,-0.2841,0.0293
1781766195576,-0.4356,0.0786,-1.0062,-0.9792,-0.1466,0.0605
1781766195616,-0.0393,0.2418,-1.3007,-0.7391,-0.0391,-0.0134
1781766195656,-0.5554,-1.0771,-1.9755,-0.5699,0.1148,-0.0275
1781766195696,0.9611,-0.3207,-1.3805,-0.2474,0.091,-0.0012
1781766195736,0.4996,0.1189,-2.21,0.1607,-0.0018,-0.0452
1781766195776,0.1802,-0.0496,-2.6059,0.471,0.1277,-0.0531
1781766195816,0.7648,0.0891,-1.6777,0.7666,0.0965,-0.0281
1781766195856,1.1003,-0.3924,-1.3856,1.0544,0.036,-0.1973
1781766195897,0.6513,-0.3999,-1.3874,1.2285,-0.0244,-0.259
1781766195936,-0.523,-0.108,-0.8453,1.5339,0.0556,-0.1918
1781766195976,-0.4914,-0.0192,-0.1444,1.7849,0.0446,-0.0544
1781766196016,-0.2318,0.1626,-0.2338,2.0195,-0.1185,0.0116
1781766196056,0.0189,0.2406,-0.5338,1.9432,-0.0489,-0.0574
1781766196096,0.2065,0.2165,-0.3368,1.9456,0.2162,-0.2217
1781766196136,0.1057,0.4859,0.0879,1.876,0.2914,-0.3635
1781766196176,-0.0515,0.2223,0.5608,1.9035,0.5418,-0.471
1781766196217,0.6503,-0.2662,1.0175,1.8326,0.5791,-0.5211
1781766196256,0.5599,0.1472,0.5752,1.8479,0.5076,-0.5644
1781766196296,0.261,0.7145,1.5781,1.8973,0.3751,-0.529
1781766196336,0.1405,0.5949,1.2691,1.9652,0.3506,-0.5986
1781766196377,0.0394,0.9859,1.167,1.9871,0.3403,-0.5748
1781766196416,0.2176,0.5254,1.2891,1.8784,0.3396,-0.4575
1781766196456,-0.2075,0.6299,0.9404,1.6133,0.2315,-0.2211
1781766196497,-0.7352,1.1236,0.5231,1.2761,0.1338,-0.014
1781766196536,-0.6882,1.5558,0.1079,0.9462,-0.0012,0.0874
1781766196576,1.2085,0.7393,-0.5545,0.6756,0.2248,-0.1191
1781766196616,1.388,-0.0146,-0.3514,0.5443,0.5113,-0.234
1781766196656,0.1882,-1.2084,0.7939,0.3488,0.4252,-0.1051
1781766196696,0.6834,-0.6963,0.7423,0.0489,0.0483,0.0996
1781766196736,1.3661,-0.4172,-0.6008,-0.1045,-0.2425,0.1607
1781766196776,0.8617,0.2907,-0.198,-0.1613,-0.1613,-0.0122
1781766196816,-0.0297,-0.1256,0.8811,-0.0629,-0.0489,-0.0739
1781766196856,-0.5074,0.1131,0.8379,-0.0922,-0.537,0.0495
1781766196896,0.1196,0.0096,1.1493,0.1674,0.2932,0.0935
1781766196936,0.2794,-0.3086,-0.2093,0.0171,0.1778,0.0446
1781766196976,0.2858,-0.1619,-0.0293,-0.1026,-0.0116,-0.0024
1781766197016,-0.0694,-0.1314,-0.096,-0.1423,-0.1533,0.0269
1781766197057,-0.1121,0.0014,0.0397,-0.0776,0.0299,0.0776
1781766197097,0.6555,-0.0815,0.2187,-0.0794,0.204,0.0782
1781766197137,-0.2094,-0.5178,-0.2239,-0.2639,-0.0837,0.1093
1781766197176,0.2436,-0.2161,-0.3462,-0.4258,-0.2034,0.1026
1781766197216,0.0702,0.0739,-0.3625,-0.6371,-0.35,0.1796
1781766197256,0.1987,-0.4074,-1.0786,-0.9639,-0.4734,0.3054
1781766197296,-1.2019,0.7754,-0.2946,-1.7898,-0.7172,0.5663
1781766197336,-1.4895,3.3189,-1.0445,-2.1985,-0.4465,1.1869
1781766197376,-0.7959,-0.8398,1.4918,-0.9279,-0.0403,1.0446
1781766197416,2.0116,1.5729,2.5553,-2.0042,0.708,0.3555
1781766197456,1.3225,1.6913,1.6887,-1.2223,-0.4349,0.0263
1781766197496,0.8212,-0.9223,-1.7246,-1.7623,-0.3738,0.2938
1781766197537,0.7643,0.7814,2.316,-1.2468,-0.6561,0.4514
1781766197576,-0.4774,2.1393,-0.946,-1.3476,-0.7123,0.6225
1781766197616,-2.921,-4.3069,0.4693,-1.6988,0.2248,0.3806
1781766197657,0.3846,2.2489,0.0768,-1.43,0.4123,0.3158
1781766197696,1.0702,1.0307,0.1811,-1.5791,-0.1295,0.3592
1781766197736,0.3765,-0.5425,-0.626,-1.5479,-0.1478,0.1405
1781766197777,-0.0024,0.5133,-0.2782,-1.5412,0.0568,0.1216
1781766197816,0.5861,-0.4106,-1.5596,-1.7226,0.0648,0.0745
1781766197856,0.5035,-0.0324,-0.3383,-1.5663,0.0177,-0.0874
1781766197896,-0.0428,-0.1137,-0.7815,-1.5577,-0.0128,-0.0281
1781766197936,-0.5297,0.145,-1.2433,-1.4343,-0.0104,-0.0959
1781766197976,-1.3629,-0.3598,-1.3962,-1.3806,0.1649,-0.1387
1781766198016,0.1909,-0.3996,-0.6141,-1.2578,0.1918,-0.1307
1781766198056,0.6703,0.311,-0.406,-1.1484,0.0421,-0.1991
1781766198096,-0.4952,0.3381,-0.9495,-0.9682,0.025,-0.2596
1781766198136,-0.5567,0.7822,-0.766,-0.8308,0.1814,-0.2456
1781766198176,-0.0018,1.3251,-0.4026,-0.6255,0.2511,-0.1491
1781766198216,0.1248,0.671,0.119,-0.474,0.1955,-0.0757
1781766198256,-0.0614,0.1308,-1.8623,-0.2425,0.1845,-0.1765
1781766198296,0.2299,0.8305,-1.7776,0.0531,-0.0263,-0.1765
1781766198336,-1.07,1.5312,-1.7996,0.3897,0.0293,-0.1411
1781766198376,-0.8758,1.6408,-1.5128,0.7147,0.1991,-0.0214
1781766198416,-0.7945,1.4029,-0.9815,1.1044,0.1869,0.0825
1781766198456,0.1777,-0.003,-0.325,1.3952,0.0305,0.1967
1781766198496,-0.1869,-0.0826,-0.7298,1.6493,-0.0574,0.1423
1781766198536,-0.4701,-0.1801,-0.3023,1.7837,0.0562,0.124
1781766198577,0.0993,-0.3649,-0.2624,1.8357,-0.0134,0.1448
1781766198617,-0.1941,-0.4445,0.0754,1.9254,-0.1741,0.1692
1781766198657,-0.0171,0.1892,-0.6492,1.9432,-0.2425,0.0983
1781766198696,0.2313,0.3199,-0.1283,1.9206,-0.2529,0.0458
1781766198737,-0.0921,0.0315,-0.0606,1.8509,-0.1417,-0.1662
1781766198776,-0.0776,0.0786,0.6857,1.7843,0.0342,-0.3531
1781766198816,0.0061,-0.0061,0.5568,1.6799,0.1839,-0.4246
1781766198857,-0.3308,-0.0947,1.2795,1.6677,0.3024,-0.4624
1781766198896,-0.2927,-0.2284,1.3105,1.7184,0.2804,-0.3696
1781766198936,-1.6972,0.2121,1.2584,2.011,0.306,-0.256
1781766198977,-1.0965,-0.1392,2.2575,2.0488,0.6634,-0.2199
1781766199016,1.5454,1.1034,1.4749,1.8253,0.7019,-0.4832
1781766199056,2.425,2.2453,0.3096,1.4649,0.2889,-0.4019
1781766199096,-0.3917,0.2633,0.7271,1.2822,0.212,-0.4117
1781766199136,-0.6931,-0.2425,1.0229,1.0324,0.3738,-0.3519
1781766199176,-0.0373,0.5781,1.2341,0.7819,0.38,-0.2279
1781766199216,1.4117,0.2076,1.4294,0.8558,0.2657,-0.1564
1781766199258,1.3864,0.9337,0.7917,0.6781,0.2175,-0.0965
1781766199297,1.1523,-2.0626,0.1354,0.5406,0.2126,-0.2828
1781766199336,0.2737,-0.6585,-0.2048,0.0489,-0.3586,-0.0941
1781766199376,0.0795,0.1177,-0.4048,-0.1625,-0.5705,0.0263
1781766199416,-0.5921,-0.2979,0.453,-0.1869,-0.2291,-0.0293
1781766199456,-0.9752,0.41,0.9747,0.0379,0.2938,-0.0788
1781766199496,-1.9447,2.0406,-0.4744,0.4258,-0.6402,0.0367
1781766199536,1.5881,-0.0115,-0.9861,0.0831,0.8161,0.201
1781766199576,1.0686,-0.3209,0.6736,0.0104,0.0403,-0.0147
1781766199616,-0.2658,-0.2844,0.318,-0.1533,-0.1093,-0.0495
1781766199656,-0.2429,0.1118,0.8186,-0.0849,-0.2841,0.0476
1781766199696,-0.2725,-0.1437,0.0497,0.0586,-0.0593,0.0214
1781766199737,-0.1809,-0.082,0.5145,0.0263,0.0947,-0.0116
1781766199776,0.2192,-0.1818,0.1534,-0.0507,0.0531,0.011
1781766199816,0.1129,-0.2191,-0.0272,-0.1472,0.0397,0.0116
1781766199856,0.1647,-0.1159,0.422,-0.2755,-0.0483,0.0226
1781766199897,0.1619,-0.6309,-0.1984,-0.3305,-0.1264,0.0599
1781766199938,0.2289,0.1166,0.7502,-0.2877,-0.2779,0.0916
1781766199976,0.7601,0.6874,1.0716,-0.3684,0.0049,0.0299
1781766200016,0.656,-0.225,-0.4847,-0.4423,-0.0098,-0.0354
1781766200057,-1.7857,0.3585,-0.4699,-0.7404,-0.234,0.1484
1781766200096,1.4108,0.8942,-0.9105,-1.281,-0.2376,0.3616
1781766200136,-1.0473,-0.6962,-0.0623,-1.5461,-0.1301,0.6402
1781766200177,0.1368,2.4643,1.6021,-1.2223,-0.0397,0.4417
1781766200216,1.2431,2.1563,-1.5749,-1.314,0.358,0.1124
1781766200257,-3.4656,-4.5502,2.1885,-1.5192,-0.2242,0.3366
1781766200296,2.1056,4.2442,0.3809,-1.2816,0.1558,0.496
1781766200337,0.5415,0.5935,-0.4365,-1.7147,-0.4643,0.3421
1781766200376,-1.8754,-0.0649,0.011,-1.4184,-0.427,0.2022
1781766200416,-1.4332,1.6224,0.4291,-1.4288,-0.1179,0.3842
1781766200457,-0.3394,-0.8829,0.224,-1.4502,-0.2144,0.4221
1781766200496,-0.7676,1.1953,-0.6651,-1.3482,-0.0483,0.3091
1781766200536,0.8649,-0.1766,-0.4885,-1.4239,-0.0599,0.3176
1781766200577,-0.0489,0.6944,-0.3865,-1.317,-0.2541,0.1784
1781766200616,-0.1289,0.1912,-0.6702,-1.4013,-0.1765,0.1173
1781766200656,-0.6768,0.7201,-0.9279,-1.3408,-0.0263,0.0299
1781766200697,-0.0833,0.2672,-0.5344,-1.3628,0.0727,0.0214
1781766200737,0.1335,0.5061,-0.4136,-1.3506,0.0104,-0.0935
1781766200777,-0.3092,-0.0079,-0.4347,-1.2743,-0.0794,-0.0574
1781766200816,0.1424,0.1242,-0.8286,-1.1814,-0.1539,-0.058
1781766200856,-0.4654,0.4833,-1.1342,-1.044,-0.1448,-0.0965
1781766200896,-0.1323,0.607,-1.24,-0.9047,-0.08,-0.0953
1781766200936,-0.1223,0.4528,-0.9808,-0.7153,-0.1326,-0.0415
1781766200976,-0.2223,0.0841,-1.1398,-0.5363,-0.0147,0.025
1781766201016,0.5308,0.351,-1.1247,-0.4026,0.0006,0.0806
1781766201056,0.4273,0.0852,-1.8624,-0.1955,-0.025,0.0702
1781766201096,0.2573,0.3409,-2.1994,0.0489,0.0562,0.0134
1781766201136,0.538,0.1446,-2.1997,0.3207,0.1472,-0.0476
1781766201177,-0.1341,0.2912,-1.9553,0.65,0.1973,-0.0226
1781766201216,0.3228,0.0874,-1.2805,0.956,0.2291,-0.0134
1781766201256,-0.1809,-0.2786,-0.6438,1.2792,0.1588,-0.0287
1781766201296,-0.5719,-0.2346,-0.5677,1.4795,0.033,0.0086
1781766201336,-0.9596,-0.8289,-0.4221,1.7245,-0.0776,0.0678
1781766201376,-0.7338,-0.675,0.0379,1.8192,-0.1918,0.1509
1781766201416,0.1451,-0.3487,0.3585,1.8185,-0.2883,0.1148
1781766201456,0.5771,-0.1952,-0.1936,1.6408,-0.1515,-0.0745
1781766201496,0.1299,-0.1993,0.0862,1.4783,0.08,-0.2566
1781766201536,0.1972,0.3015,0.1983,1.4239,0.0941,-0.4533
1781766201576,0.0793,0.4303,0.4455,1.3555,0.0947,-0.4307
1781766201616,0.3726,0.462,1.0259,1.3439,-0.0629,-0.5143
1781766201656,-0.2566,0.667,0.567,1.3818,-0.0672,-0.4191
1781766201696,-0.5295,0.3658,0.6004,1.4093,0.0348,-0.4459
1781766201736,-0.1103,0.3085,0.4878,1.3842,0.1765,-0.471
1781766201777,-0.1521,0.5397,0.7492,1.4111,0.1582,-0.4655
1781766201816,-0.3679,0.6763,0.8079,1.4423,0.1032,-0.4325
1781766201856,0.2504,0.5041,0.3826,1.3531,0.1295,-0.4294
1781766201896,0.1767,0.124,1.0518,1.1087,0.0562,-0.4569
1781766201936,-0.0085,0.4381,0.7997,0.9334,-0.1405,-0.3262
1781766201976,-0.6587,0.6145,0.3336,0.9383,-0.0373,-0.2224
1781766202016,-0.4562,-0.5254,0.2298,0.8143,0.1888,-0.1106
1781766202057,0.6106,-0.0249,0.026,0.8088,0.1161,-0.245
1781766202097,0.6503,0.8947,0.2969,0.6872,0.047,-0.2334
1781766202136,-0.0112,-0.1177,0.4497,0.6658,-0.0837,-0.1924
1781766202176,-0.7623,1.1083,-0.0098,0.7251,0.0586,-0.2511
1781766202216,-0.22,-0.9486,0.3975,0.3311,0.2627,-0.1515
1781766202256,0.3076,-1.114,-0.9995,-0.0892,-0.1582,0.1289
1781766202297,0.4918,-1.0177,-0.867,-0.2608,-0.0654,0.0458
1781766202337,0.2235,0.9851,0.8521,-0.2004,0.1802,-0.0544
1781766202377,-1.3465,0.7878,10.6323,-0.0501,0.1423,-0.0794
1781766202416,-0.1736,-0.1587,-1.0789,0.0776,0.1295,0.0238
1781766202456,0.6039,0.6156,-0.0109,0.0318,0.1765,-0.0275
1781766202497,0.8111,-0.1098,-0.4554,0.036,0.2236,-0.0556
1781766202536,-0.3383,-0.0746,-0.5033,-0.0739,-0.0641,-0.0324
1781766202576,-0.3586,0.0303,-0.3185,-0.1008,0.0953,0.0415
1781766202616,-0.0702,-0.2586,-0.4165,-0.1283,0.1161,0.0751
1781766202656,0.0955,0.0808,-0.0994,-0.1955,0.047,0.1069
1781766202696,0.499,-0.1293,-0.5362,-0.2779,0.1228,0.0971
1781766202736,-0.0007,-0.592,-0.7087,-0.3537,-0.0177,0.1026
1781766202776,0.0477,0.5081,-0.2589,-0.4551,-0.0825,0.1387
1781766202816,0.1066,-0.1742,-0.5939,-0.722,-0.1167,0.1686
1781766202856,-1.0706,0.2415,-0.975,-1.1099,-0.2443,0.3806
1781766202896,-1.1394,0.4133,-0.867,-1.2175,0.0012,0.6713
1781766202936,0.4418,0.7383,0.1937,-1.4655,0.4013,0.5913
1781766202976,0.7375,1.4434,0.8506,-1.5516,0.5192,0.5272
1781766203016,-0.3114,2.447,1.5411,-0.9951,0.4239,0.3842
1781766203057,1.9472,-1.6028,-3.4452,-1.9645,0.0678,0.1888
1781766203096,-0.3714,-1.2313,3.5042,-1.2999,-0.6219,0.617
1781766203137,0.673,4.3901,4.7555,-0.6597,-0.3989,0.7709
1781766203176,0.0347,1.9906,-5.2711,-1.6139,-0.3818,0.1637
1781766203216,-1.145,-4.9123,0.8976,-1.3213,0.2865,0.2657
1781766203257,1.1949,4.0051,0.3483,-1.3268,-0.3341,0.1698
1781766203296,-0.5549,0.3925,-0.1723,-1.3384,-0.2841,0.2279
1781766203336,-0.9689,0.0431,-0.178,-1.3463,0.0165,0.1631
1781766203376,-0.601,1.223,0.0809,-1.5571,0.11,0.1436
1781766203416,-0.0967,0.5906,0.5193,-1.2657,-0.1081,0.0794
1781766203456,-0.3115,-0.1909,-0.0553,-1.2895,-0.0672,0.157
1781766203496,0.2817,-0.1152,-0.1445,-1.2565,-0.2889,0.1998
1781766203537,-0.7223,-0.4984,-0.3307,-1.2614,-0.2407,0.2498
1781766203576,0.3346,0.073,-0.4854,-1.1961,-0.1051,0.1405
1781766203616,0.6437,0.115,-0.3727,-1.1564,-0.1319,-0.0171
1781766203657,-0.5797,0.0574,-1.4382,-1.1435,-0.0605,-0.0812
1781766203696,-0.8807,-0.2598,-1.1173,-0.9212,-0.0483,0.0263
1781766203736,-0.3438,-0.2309,-1.0375,-0.6713,-0.1032,0.0654
1781766203776,-0.6948,0.0627,-1.6513,-0.5748,0.1002,0.0635
1781766203816,0.0721,-0.0673,-0.8192,-0.4588,0.1362,-0.0874
1781766203856,0.4896,0.502,-1.1649,-0.2382,0.0849,-0.2083
1781766203896,-0.6767,0.9161,-1.0146,0.1228,0.0287,-0.2395
1781766203937,-1.569,1.2324,-2.1731,0.3268,0.1368,-0.2443
1781766203977,-0.2565,1.067,-1.489,0.708,0.1637,-0.2046
1781766204017,-0.0314,0.2932,-1.2881,1.025,0.0061,-0.1448
1781766204057,-0.5502,0.0295,-1.268,1.3109,0.0189,-0.0128
1781766204096,-0.1048,-0.4794,-1.0179,1.4697,0.0244,0.0195
1781766204136,0.8245,0.3046,-0.6417,1.5424,-0.1472,-0.1063
1781766204177,0.0606,0.2866,-0.3685,1.6218,-0.2053,-0.2242
1781766204216,-0.9798,0.1004,-0.4755,1.6518,0.0788,-0.2132
1781766204256,-0.4307,-0.2987,0.3208,1.6878,0.157,0.0244
1781766204296,0.6676,0.5367,-0.0073,1.6499,-0.0293,-0.0403
1781766204336,0.4059,0.4644,0.4606,1.6115,-0.0092,-0.2712
1781766204376,-0.0299,-0.2993,0.1713,1.5467,0.2993,-0.3201
1781766204416,-0.1131,-0.3195,-0.381,1.4978,0.5015,-0.383
1781766204456,0.401,0.4726,0.5825,1.5913,0.5107,-0.504
1781766204496,0.1613,0.7377,0.7974,1.7025,0.3738,-0.6292
1781766204536,0.334,0.3878,0.9836,1.7813,0.3122,-0.6854
1781766204577,0.028,0.3762,1.59,1.8442,0.1552,-0.5968
1781766204616,-0.1632,0.4076,0.615,1.8234,0.0226,-0.4197
1781766204656,-1.0062,0.6241,0.8243,1.6646,0.0965,-0.3268
1781766204696,-0.9955,1.0166,0.3377,1.5088,0.1454,-0.3109
1781766204736,-1.1175,1.2656,-0.1284,1.1839,0.3164,-0.4447
1781766204776,-1.1116,1.0549,0.5782,0.832,0.4795,-0.2004
1781766204816,1.2049,0.7744,0.1524,0.7947,0.4759,-0.2816
1781766204856,0.9069,-0.3627,-0.0859,0.5583,0.2535,-0.1796
1781766204896,0.2395,-1.108,0.2228,0.237,0.2272,-0.066
1781766204937,0.6275,-1.0808,0.3076,-0.0208,-0.0544,0.0599
1781766204976,0.3566,0.287,-0.0943,-0.0599,-0.2193,0.0238
1781766205016,0.1393,-0.0405,0.4016,0.0495,0.0812,-0.0745
1781766205056,1.1775,-0.845,-0.8942,0.0837,0.1295,0.0049
1781766205097,1.3367,-1.408,0.4219,0.1246,0.1918,-0.0208
1781766205136,0.3619,-0.8121,0.5399,0.022,0.0757,0.0006
1781766205176,0.2741,-0.6024,0.5609,-0.0525,-0.1142,-0.0122
1781766205216,-0.6544,0.5741,-0.0767,-0.0965,0.0012,0.0012
1781766205257,-0.6559,0.147,0.7258,0.1124,0.1381,0.0226
1781766205296,-1.1036,0.2795,-0.3118,0.091,0.3543,-0.0275
1781766205336,-1.8626,-0.8428,-0.9076,0.0,0.6506,0.0281
1781766205376,-0.6354,-0.1034,-0.1009,-0.1985,0.5809,0.1912
1781766205416,0.7618,-0.9094,-0.6644,-0.3262,0.3867,0.2315
1781766205456,2.2366,0.3613,0.673,-0.2462,0.2468,0.2138
1781766205497,2.1325,-0.539,1.077,-0.0977,0.2498,0.0623
1781766205537,2.8467,-0.1961,0.7218,-0.3977,-0.4044,0.0428
1781766205576,0.3176,0.351,0.6852,-0.4673,-0.6548,-0.1448
1781766205617,-1.7371,1.1349,-1.6957,-1.0183,-0.5779,0.1588
1781766205656,-0.5477,-0.018,0.1942,-1.3689,-0.8943,0.4349
1781766205696,-0.0446,2.4558,1.1709,-1.617,-0.6103,0.3708
1781766205736,1.4403,2.9874,0.5645,-1.3824,-0.6939,0.1173
1781766205776,-1.8196,-1.6619,1.7696,-1.5259,-0.4875,0.6622
1781766205816,0.868,0.1742,1.8332,-1.3977,-0.2896,0.4038
1781766205857,-0.1985,1.8716,-3.1165,-1.9059,-0.4832,0.0379
1781766205896,-0.4392,-2.7929,1.6651,-1.631,-0.1026,0.4789
1781766205936,1.0826,5.1039,0.8696,-1.3916,-0.5076,0.2853
1781766205976,-2.1018,-0.2663,-0.8854,-1.5864,-0.2712,0.4966
1781766206016,-2.063,-1.3376,0.7467,-1.3799,-0.0574,0.5205
1781766206057,0.3751,2.1572,-0.0446,-1.4655,0.0556,0.4386
1781766206097,0.7728,0.3594,0.1616,-1.6029,-0.0336,0.1881
1781766206136,0.4745,0.3164,0.3496,-1.4203,-0.2462,0.2388
1781766206176,-0.6921,0.5263,-0.3364,-1.584,-0.0611,0.2462
1781766206216,0.5708,0.0199,0.2137,-1.504,-0.0599,0.1564
1781766206257,0.1934,0.6248,0.2657,-1.4178,-0.1326,0.0281
1781766206296,0.035,-0.1954,-1.0995,-1.4093,-0.0916,0.1643
1781766206336,0.205,0.0935,-0.4218,-1.3421,-0.0367,0.1527
1781766206376,0.1859,0.0603,-0.9347,-1.3036,0.0177,0.1668
1781766206416,0.0972,0.306,-1.0648,-1.2199,0.0757,0.0336
1781766206456,0.333,-0.0198,-0.8365,-1.1973,0.0831,-0.1289
1781766206497,-0.9876,0.3784,-1.1856,-0.9792,0.0434,-0.1613
1781766206536,-0.4292,0.5108,-1.0826,-0.7062,0.0452,-0.0189
1781766206576,0.6964,1.4054,-1.2453,-0.4056,0.036,0.0489
1781766206616,-0.2879,0.4812,-1.9667,-0.0318,0.0018,0.0263
1781766206656,0.178,0.5829,-2.092,0.1753,0.1491,-0.066
1781766206696,1.223,0.9879,-1.1992,0.3574,0.2932,-0.4465
1781766206736,0.2141,-0.8208,-1.0031,0.6267,0.135,-0.3152
1781766206777,-0.6094,0.3027,-0.9506,0.7501,0.182,-0.3256
1781766206816,-0.6002,-0.0903,-0.6933,0.9566,0.2364,-0.2657
1781766206856,-0.7677,-0.0966,-0.4412,1.2071,-0.0037,-0.0929
1781766206896,-0.8021,-0.1936,-0.1754,1.3714,-0.0324,-0.0617
1781766206936,-0.1897,0.2349,0.2608,1.4911,-0.1026,0.0092
1781766206976,-0.2312,-0.2542,-0.1889,1.4978,-0.1387,-0.0275
1781766207016,-0.2376,-0.0589,0.3329,1.3909,-0.124,-0.0403
1781766207057,-0.1706,0.326,0.3605,1.3555,-0.1484,-0.0257
1781766207096,-0.0504,0.3994,0.2189,1.3482,-0.2358,-0.0721
1781766207137,-0.5019,0.3232,0.1875,1.2718,-0.1484,-0.1429
1781766207176,-0.7079,0.3199,0.303,1.1765,0.058,-0.2505
1781766207216,0.1317,-0.0349,0.3074,1.1307,0.1637,-0.2645
1781766207257,0.0099,-0.026,0.2921,1.1246,0.1943,-0.3421
1781766207296,-0.4261,0.2896,0.5114,1.1661,0.3024,-0.3555
1781766207336,0.7183,-0.2436,0.8212,1.1564,0.3757,-0.4178
1781766207376,0.5358,0.0578,0.5819,1.1344,0.2737,-0.5431
1781766207416,-0.0857,0.0517,0.8822,1.1191,0.1943,-0.474
1781766207456,0.477,-0.2131,0.9484,1.0971,0.171,-0.4661
1781766207496,0.7461,0.2321,0.666,0.8906,0.1393,-0.6335
1781766207537,-0.2399,0.398,0.5232,0.9371,-0.0788,-0.5522
1781766207577,-0.9492,-0.0848,0.3393,0.8986,0.0666,-0.5486
1781766207616,-1.6248,-0.2039,0.6344,0.9151,0.2431,-0.5712
1781766207657,0.0678,-0.4164,0.6,0.9621,0.3616,-0.2792
1781766207696,0.2297,-0.6049,1.4532,1.0953,0.2382,-0.0098
1781766207737,1.3049,-0.3565,1.5277,0.9279,0.3244,0.1521
1781766207777,1.0176,0.3978,1.1879,0.8418,0.1973,0.0293
1781766207817,0.8101,0.7089,0.9445,0.7929,0.0678,0.0501
1781766207857,0.4869,0.5923,0.2864,0.7263,0.0531,0.0745
1781766207896,0.8017,0.5226,0.0466,0.5327,0.3354,-0.0226
1781766207937,1.9622,-0.4692,-0.0631,0.4942,0.3115,-0.0867
1781766207978,0.0981,-0.0864,-0.3207,0.2779,0.2993,-0.146
1781766208017,-0.0023,-0.1483,-0.2549,0.1258,0.2938,-0.0757
1781766208057,0.1996,-0.7088,0.121,0.1295,0.2694,0.025
1781766208097,-0.0178,0.9782,-0.0207,-0.0147,-0.0476,0.1179
1781766208136,0.6756,-1.0341,-0.3536,-0.1252,0.1038,0.0421
1781766208177,-0.4105,0.0962,0.3963,-0.0593,0.0892,0.0208
1781766208217,-0.1115,0.7768,0.7531,0.0189,0.0538,0.0562
1781766208257,-0.1707,-0.9545,-0.3004,0.1191,0.1295,-0.0599
1781766208297,-0.834,0.5514,0.5938,0.1662,0.1112,-0.0171
1781766208337,0.2402,0.1024,0.2738,0.2327,-0.0348,0.0195
1781766208378,-0.3624,-1.391,-0.5594,0.0037,-0.1014,0.025
1781766208416,-0.4805,0.0885,0.7651,-0.0086,-0.1387,0.0531
1781766208457,-0.2608,-0.0053,0.416,0.011,-0.066,0.0415
1781766208497,-0.7044,0.303,0.2022,-0.0305,-0.0018,0.0464
1781766208536,0.3024,-0.8602,0.4864,-0.0489,0.0189,0.0855
1781766208577,0.2504,-0.3482,-0.2391,-0.1881,-0.1491,0.1118
1781766208617,0.6598,-0.022,-0.2314,-0.5651,-0.2022,0.0831
1781766208657,0.0731,-0.4273,-1.04,-0.8503,-0.3103,0.0324
1781766208697,-1.7602,0.0115,-0.675,-1.4178,-0.256,0.4184
1781766208737,-1.1535,1.4553,-0.4475,-1.9578,-0.4264,1.0507
1781766208777,-0.7821,2.9453,1.9508,-1.408,0.2181,0.7917
1781766208817,2.2694,0.2129,0.0771,-1.2004,0.2193,0.617
1781766208857,0.62,-3.0379,0.1293,-1.4068,-0.1484,0.3757
1781766208896,1.45,1.4722,1.7332,-1.5608,0.1478,0.1991
1781766208937,0.6693,2.7028,2.2264,-0.9951,-0.4801,0.1747
1781766208977,-2.3973,-1.5888,-0.0246,-1.3408,-0.5565,0.3677
1781766209016,-0.8852,1.0352,0.9977,-1.3262,0.0086,0.4508
1781766209057,-0.1246,2.9269,-0.0491,-1.19,0.1075,0.4392
1781766209097,-1.6054,-0.0438,-0.0315,-1.4245,-0.0428,0.4233
1781766209137,-0.2307,1.1579,0.0868,-1.3097,0.0898,0.4991
1781766209177,0.5665,1.2034,0.4585,-1.3011,-0.0684,0.5571
1781766209217,-0.6877,0.4945,-0.4041,-1.2914,-0.1796,0.394
1781766209257,-0.1282,-0.6605,-0.1847,-1.3048,0.0843,0.3891
1781766209296,1.0513,-0.3907,-0.448,-1.2132,-0.1118,0.3989
1781766209336,0.6706,-0.5167,-0.9485,-1.2511,-0.3134,0.2779
1781766209376,0.0958,-0.6316,-1.1736,-1.2456,-0.2376,0.1008
1781766209416,0.3664,-0.029,-1.0043,-1.1374,-0.0495,0.0458
1781766209457,-0.6304,-0.4827,-1.5912,-1.0012,-0.0336,0.0067
1781766209497,0.2404,0.0024,-1.0022,-0.9187,0.146,-0.011
1781766209536,0.5579,0.1737,-0.842,-0.8693,0.1961,-0.1124
1781766209577,-0.3298,-0.322,-1.2305,-0.6677,0.0562,-0.1478
1781766209616,-0.5062,-0.1293,-1.8155,-0.452,0.0043,-0.066
1781766209657,-0.6676,0.6809,-1.7313,-0.0061,0.0867,-0.0336
1781766209697,0.3013,0.2849,-2.468,0.347,0.1906,-0.0843
1781766209737,-0.022,-0.0054,-1.8058,0.551,0.2657,-0.2505
1781766209776,-0.0884,-0.0647,-1.4702,0.8564,0.212,-0.2089
1781766209816,-0.3025,0.1677,-1.7234,1.113,0.3586,-0.3512
1781766209856,-1.7612,-0.5161,-1.5826,1.3262,0.485,-0.1289
1781766209896,0.2404,0.1946,-0.2691,1.7397,0.0739,-0.1228
1781766209936,0.6077,-0.8381,-0.1829,1.9279,-0.2822,-0.1381
1781766209977,0.301,-1.0562,-0.3601,1.9694,-0.3293,-0.2596
1781766210016,0.0171,-0.8266,-0.5981,1.8192,-0.0147,-0.4435
1781766210057,0.8111,-0.3299,-0.0785,1.7697,0.1527,-0.7055
1781766210096,0.1872,0.7583,-0.3104,1.7917,0.1625,-0.7605
1781766210136,-0.06,0.4478,0.9017,1.879,0.2217,-0.7672
1781766210176,-0.5452,1.28,0.8602,1.9688,0.1594,-0.7104
1781766210217,-0.7674,1.6002,0.9324,2.0183,0.2034,-0.6952
1781766210257,-1.4602,1.2441,1.0622,2.0446,0.3677,-0.7055
1781766210297,-0.6907,1.4386,0.9446,2.0177,0.4319,-0.5803
1781766210337,-0.3631,1.4756,0.4855,1.755,0.3647,-0.4649
1781766210376,-1.5241,0.4708,0.3079,1.3586,0.4337,-0.1973
1781766210417,-1.3227,0.6572,0.0291,1.0421,0.4514,0.0525
1781766210457,-0.1278,1.2974,0.3284,0.7282,0.38,0.0959
1781766210497,3.6319,0.862,0.0165,0.6304,0.711,-0.2364
1781766210537,0.8855,-0.4662,0.0551,0.3806,0.1826,-0.1222
1781766210577,0.5941,-1.1716,0.4339,0.2162,0.3396,-0.1472
1781766210617,1.8544,-2.2173,-3.0599,0.4246,0.7086,0.0067
1781766210656,0.9192,1.2972,-2.0336,-0.0415,0.0819,0.0898
1781766210697,-0.2196,-0.379,-0.8777,-0.1124,0.124,0.0165
1781766210737,0.3914,0.1326,0.9107,-0.0648,-0.1436,0.011
1781766210778,-0.4436,0.1623,0.0073,-0.0501,-0.0776,0.0794
1781766210816,-0.0867,-0.2817,0.0993,0.0586,-0.0104,0.0544
1781766210856,-0.1622,0.0739,0.0458,0.0379,0.0098,0.0128
1781766210896,-0.3463,-0.0995,-0.2001,0.0538,0.0757,0.0367
1781766210937,-0.0197,0.1361,0.1223,-0.0079,-0.1545,0.0605
1781766210977,-0.1042,-0.6022,-0.2623,-0.0446,-0.0996,0.0666
1781766211017,0.1255,-0.0585,0.1148,-0.1631,-0.1472,0.036
1781766211057,-0.1095,-0.0647,-0.2262,-0.3183,-0.2059,0.069
1781766211097,0.326,-1.1977,-1.0555,-0.5748,-0.4789,0.0611
1781766211137,-1.1074,0.3683,-0.1655,-1.0293,-0.6176,0.2279
1781766211177,-0.4796,1.4845,-0.5455,-1.6658,-0.3476,0.5137
1781766211217,-3.3512,-0.5974,-0.3056,-2.1606,-0.4862,0.9847
1781766211257,2.3117,4.7231,2.5244,-1.7556,0.3641,0.6115
1781766211296,2.1787,0.8012,2.43,-1.5571,-0.3036,0.4704
1781766211337,0.2877,-3.5194,1.7722,-1.9988,0.2957,0.1991
1781766211377,1.7848,2.1562,1.139,-1.6109,-0.5669,0.2089
1781766211417,0.5624,1.5902,-0.7417,-1.7312,-0.7691,0.2046
1781766211456,-3.7489,-0.2356,0.0935,-1.7459,-0.5034,0.595
1781766211497,-1.049,0.7365,0.0123,-1.7049,-0.157,0.4661
1781766211537,-2.421,1.8945,-0.2386,-1.722,0.2395,0.4954
1781766211577,1.123,-0.096,-0.4122,-1.5571,-0.1203,0.4814
1781766211617,-0.6631,0.4426,0.1344,-1.5064,-0.1301,0.4172
1781766211656,-0.3191,0.6807,-0.5541,-1.4893,-0.1753,0.4453
1781766211697,-1.2666,-0.1157,-0.8805,-1.3567,-0.0018,0.4447
1781766211737,0.4806,0.059,-1.381,-1.3427,0.0751,0.1692
1781766211776,1.2038,-0.5283,-0.9628,-1.2975,-0.0275,0.0226
1781766211817,0.5591,-0.4528,-1.0308,-1.044,-0.1063,-0.0134
1781766211856,0.4955,-0.2045,-1.4538,-0.8674,-0.0287,-0.0281
1781766211896,0.1341,0.02,-1.3101,-0.6744,0.1093,-0.0739
1781766211936,0.3441,0.146,-1.2177,-0.3916,0.036,-0.0898
1781766211976,-0.233,0.0997,-1.3592,-0.0605,0.0397,-0.0202
1781766212017,-0.1614,0.1183,-1.9326,0.2505,0.179,0.0202
1781766212057,0.1347,-0.1547,-1.9099,0.6139,0.1429,0.066
1781766212096,-0.2332,-0.0974,-1.736,0.9071,0.1106,0.0446
1781766212137,-0.1571,-0.0746,-1.5369,1.3219,0.0965,0.0379
1781766212177,-0.4284,-0.0428,-0.9859,1.5058,-0.0147,0.0531
1781766212217,-0.3399,0.2947,-1.064,1.6897,-0.0929,0.044
1781766212256,-0.7338,1.0988,-0.8689,1.7947,0.0134,0.0195
1781766212296,-0.2902,0.1154,-0.5576,1.879,0.1326,-0.1448
1781766212337,0.9443,-1.2463,-0.1184,1.9114,0.2376,-0.3531
1781766212377,1.0445,-1.4294,0.819,1.8772,0.3763,-0.4936
1781766212416,0.5198,-1.4745,0.831,1.8473,0.5327,-0.6048
1781766212456,0.7791,-0.7467,1.139,1.898,0.4661,-0.642
1781766212497,0.7822,-0.0611,1.501,1.9358,0.3231,-0.628
1781766212537,0.504,0.4445,1.8059,1.9218,0.1552,-0.7184
1781766212577,-0.3593,1.8197,1.6165,1.8784,-0.0012,-0.6115
1781766212617,-0.1958,2.0544,1.3289,1.8576,-0.1234,-0.4808
1781766212657,-0.4308,1.8767,-0.2988,1.6078,0.0519,-0.4771
1781766212697,-0.9339,0.3929,-0.4213,1.2785,0.1662,-0.3836
1781766212737,-1.3494,0.8282,-0.5031,1.157,0.0623,-0.0971
1781766212777,-0.4489,0.733,-0.5506,0.8864,0.3256,-0.0043
1781766212816,0.8731,0.3884,-0.463,0.6854,0.3836,-0.0269
1781766212857,1.8001,0.9971,-0.2557,0.4753,0.1112,-0.1319
1781766212896,0.9685,-0.3692,0.2239,0.3983,-0.2413,-0.1735
1781766212937,-0.4852,0.368,0.8586,0.4068,-0.3415,-0.0171
1781766212977,1.2116,-0.7811,0.7286,0.5211,-0.2346,-0.0971
1781766213017,-0.143,-0.2608,-0.5369,0.0794,-0.2077,0.0024
1781766213057,-0.3911,-1.0742,-1.1992,-0.1222,-0.4911,0.0886
1781766213097,-0.5506,-0.3355,-0.4956,-0.0354,-0.493,0.0098
1781766213137,-1.6323,0.3533,-0.007,-0.0574,-0.0507,-0.0018
1781766213177,-1.4358,-0.5586,-0.1394,0.0037,0.1662,0.0947
1781766213217,-0.7311,0.2925,0.1627,0.0067,0.3769,0.0904
1781766213257,-0.0567,-0.3091,0.2093,0.0153,0.4624,0.0568
1781766213297,0.2745,-0.1393,-0.2162,-0.0226,0.4313,0.058
1781766213337,0.2534,0.1138,-0.1245,-0.0403,0.3592,0.0244
1781766213378,0.4549,-0.0717,0.2364,-0.0458,0.0983,0.0513
1781766213416,0.6202,0.0639,-0.0766,-0.0202,0.0464,0.0293
1781766213457,0.6855,0.0985,0.3199,0.014,-0.1087,0.0147
1781766213496,0.39,-0.1478,0.0182,-0.0367,-0.1326,-0.0336
1781766213536,-0.4126,0.0107,0.3018,0.0208,0.0305,-0.0929
1781766213577,-0.7367,-0.4647,0.1688,-0.0403,0.0922,-0.0299
1781766213616,-0.3483,-0.3577,-0.6609,-0.2694,0.102,0.0544
1781766213656,0.1317,-0.5818,0.0199,-0.2761,0.0684,0.1038
1781766213696,0.4522,0.1796,0.8204,-0.5321,0.0006,0.1692
1781766213737,0.9667,0.6578,-0.0885,-0.9407,-0.2101,0.1729
1781766213776,-0.1419,-0.2412,0.3497,-1.3512,-0.3891,0.3403
1781766213817,-0.526,2.4432,-0.2767,-1.9719,-0.4148,0.7709
1781766213857,0.4883,1.1957,-0.7281,-1.8949,-0.0092,0.6909
1781766213897,-0.0604,-1.113,1.1203,-2.4123,0.2523,0.6158
1781766213937,0.9212,4.6016,3.2303,-1.5333,-0.171,0.4429
1781766213977,0.332,0.5443,-1.8358,-2.2675,-0.3891,0.2694
1781766214017,0.2669,-2.4921,1.7767,-1.7984,-0.8522,0.4612
1781766214057,0.0158,5.5846,-0.702,-1.843,-0.7062,0.2706
1781766214097,-3.0308,-2.4653,-1.6641,-2.2688,0.0281,0.3354
1781766214137,-0.2816,3.0003,0.2079,-1.6854,0.1759,0.0977
1781766214176,-0.1009,1.7384,0.2913,-1.7819,-0.1264,0.2743
1781766214217,-0.9122,-1.6037,-0.5943,-1.6127,-0.2847,0.4581
1781766214256,0.5365,1.473,-0.5562,-1.5052,-0.1484,0.38
1781766214296,-0.9545,-0.7513,-1.4054,-1.5522,0.1979,0.248
1781766214337,0.0491,0.0201,-1.3695,-1.4838,0.3726,0.1973
1781766214377,-0.2664,0.137,-0.7931,-1.2443,0.2077,0.1344
1781766214417,-0.5778,0.2884,-1.2241,-0.9536,-0.0611,0.0812
1781766214457,-0.5934,-0.1439,-1.7177,-0.8063,0.1545,0.0855
1781766214499,-0.2138,0.3407,-2.1283,-0.5076,0.1289,0.0648
1781766214536,0.2892,0.3071,-1.329,-0.1051,0.0189,-0.0147
1781766214576,0.2522,-0.0516,-2.7814,0.1497,-0.011,-0.0788
1781766214616,-0.2935,0.1448,-2.2689,0.5357,0.1613,-0.1197
1781766214657,0.1511,-0.1254,-1.7994,0.8143,0.1185,-0.1374
1781766214696,-0.0743,-0.1025,-1.1339,1.1625,0.1057,-0.1106
1781766214737,-0.2164,-0.5133,-0.6755,1.4416,-0.1026,-0.1161
1781766214777,-0.3225,-0.3312,-0.8188,1.6438,-0.1753,-0.1045
1781766214816,-0.499,-0.1914,-0.5288,1.7233,-0.1387,-0.1478
1781766214857,0.3392,0.0137,0.1756,1.7416,-0.1307,-0.2889
1781766214896,0.4301,-0.3445,0.0463,1.7171,-0.1973,-0.3439
1781766214936,0.326,-0.4125,0.3331,1.6139,-0.0849,-0.5577
1781766214977,0.9418,-0.0679,0.8283,1.518,-0.1002,-0.5828
1781766215017,1.2583,-0.0318,0.6459,1.4978,-0.3763,-0.5614
1781766215057,-0.4864,0.68,0.6193,1.5424,-0.5547,-0.6518
1781766215097,-1.7445,0.2445,0.9886,1.5821,-0.2975,-0.7654
1781766215137,-1.3461,0.4662,1.1997,1.6231,0.0855,-0.8418
1781766215178,-0.8775,1.1371,1.1224,1.6738,0.3122,-0.6915
1781766215217,-0.2749,0.5544,0.5208,1.584,0.204,-0.598
1781766215257,-0.5928,1.066,1.0083,1.4563,0.11,-0.4746
1781766215297,-1.0239,0.5581,0.0172,1.2663,-0.0153,-0.3708
1781766215337,-1.8794,0.3064,-0.3871,1.1368,0.3146,-0.3738
1781766215377,-3.4537,0.089,-0.4981,1.0696,0.9554,-0.2908
1781766215417,-0.9534,0.3534,-0.0858,1.0018,1.3659,0.0238
1781766215457,0.8076,1.2011,0.0436,0.6939,1.0788,0.2547
1781766215497,3.9497,-0.7084,1.2707,0.3952,0.6616,0.1723
1781766215537,1.3966,-0.28,1.4416,0.1533,0.3396,-0.1185
1781766215577,1.3702,-0.0352,1.3011,0.1142,-0.3305,0.0037
1781766215616,-0.8592,-0.1168,-0.1551,0.19,-0.1307,-0.0886
1781766215657,-1.0448,0.3871,-0.644,-0.0061,-0.0929,-0.0556
1781766215697,-0.7261,-1.0555,-0.0522,0.0373,-0.0183,-0.0055
1781766215736,-0.2548,0.7054,0.1593,0.0617,-0.0159,0.0024
1781766215777,0.2032,-0.3916,-0.4942,0.0269,0.0605,-0.0189
1781766215817,0.1222,-0.3526,0.1725,-0.0605,-0.0012,-0.0024
1781766215857,0.3161,0.4639,0.5227,-0.055,-0.2089,-0.0049
1781766215897,-0.1567,-0.0177,0.0729,0.0397,-0.2205,-0.0153
1781766215936,-0.1631,-0.329,-0.4761,-0.0446,-0.1588,0.0434
1781766215977,-0.0135,-0.5305,-1.0398,-0.2682,-0.1991,0.1057
1781766216017,-0.6446,-0.5922,-0.153,-0.4936,-0.0672,0.2315
1781766216057,-0.064,-0.2215,0.0247,-0.6787,-0.1063,0.2327
1781766216097,-1.5218,1.1818,-0.0791,-0.9835,0.1674,0.5113
1781766216136,-0.0718,-1.2713,1.1201,-0.8595,0.2987,0.4954
1781766216177,0.144,2.0657,2.5405,-1.2614,-0.1576,0.8125
1781766216217,5.2827,1.9132,-3.6744,-2.4172,0.0128,0.5302
1781766216257,-1.0388,1.5173,0.5267,-1.5999,-0.9951,0.1778
1781766216297,-0.5394,-0.2248,3.6047,-2.1295,-0.2975,-0.0165
1781766216337,-1.1845,1.8949,-2.9763,-1.3311,-0.7685,0.3928
1781766216377,-2.3353,-2.4614,1.4054,-1.7483,0.2896,0.2596
1781766216417,1.5631,2.2684,1.1241,-1.4691,0.0654,0.2431
1781766216457,-0.107,0.9145,-1.0577,-1.4697,-0.5009,0.3867
1781766216497,-1.5066,-0.0376,0.1224,-1.4789,-0.2621,0.3989
1781766216536,-1.0282,0.7174,0.1513,-1.3891,0.1466,0.391
1781766216577,-0.3141,0.5269,-0.1314,-1.4636,0.2963,0.3268
1781766216617,0.1517,0.4927,0.2982,-1.4624,0.2126,0.3341
1781766216657,0.2795,-0.1657,0.0626,-1.4093,-0.0562,0.5027
1781766216697,0.3169,0.3162,-0.2559,-1.3573,-0.2865,0.4459
1781766216737,-1.081,-0.0358,-0.8376,-1.339,-0.099,0.2749
1781766216777,0.0225,-0.2734,-0.6611,-1.2853,0.0654,0.2101
1781766216817,0.1992,-0.2637,-1.2667,-1.0208,-0.146,0.1826
1781766216858,-0.5174,-0.2491,-2.2677,-0.9688,-0.044,0.182
1781766216897,0.2212,-0.7302,-2.0828,-0.8687,0.1759,-0.0617
1781766216937,1.1736,-0.4318,-1.6547,-0.73,0.2193,-0.2028
1781766216977,0.1889,-0.7406,-1.7811,-0.4423,0.1552,-0.2535
1781766217017,-0.1594,0.242,-2.2923,-0.0458,0.2334,-0.212
1781766217057,-0.3911,-0.0502,-2.1308,0.3152,0.3207,-0.1698
1781766217097,0.4662,-0.0827,-1.5609,0.7092,0.4355,-0.204
1781766217137,-0.0756,0.3069,-0.9912,0.8674,0.3329,-0.2279
1781766217177,-0.7222,-0.0408,-0.7151,1.2425,0.2303,-0.1014
1781766217217,-0.3449,-0.2817,-0.1831,1.4539,0.1289,0.0
1781766217257,-0.0212,-0.2262,0.1872,1.6677,-0.0666,0.0745
1781766217296,-0.6589,-0.1432,-0.3164,1.9071,-0.1906,0.0672
1781766217337,-0.4285,-0.3941,-0.3467,1.8711,-0.2303,0.1326
1781766217377,-0.4573,0.3257,-0.3739,1.8754,-0.1063,0.0312
1781766217417,-0.8744,-0.7348,0.0685,1.9309,0.1283,-0.3024
1781766217457,-0.6751,-1.407,0.4879,1.8479,0.2779,-0.3103
1781766217497,1.2214,-0.6741,1.3994,1.9163,0.2083,-0.2773
1781766217537,1.2656,-0.729,1.8691,1.9004,0.1216,-0.7624
1781766217577,1.1266,-0.6068,1.9563,1.8546,0.1326,-0.8693
1781766217617,0.5047,0.927,2.0074,1.9163,0.1032,-0.8833
1781766217658,0.2188,1.7477,1.9366,1.978,0.0617,-0.8968
1781766217697,-0.604,1.1427,1.455,1.9022,0.0165,-0.7459
1781766217737,-1.5637,2.0567,0.4834,1.8277,-0.1319,-0.4032
1781766217777,-1.6694,1.2353,0.816,1.4844,0.0702,-0.1161
1781766217817,0.2555,1.4953,-0.2123,1.2022,0.2175,-0.124
1781766217857,2.6524,-0.3636,-0.6611,1.0342,0.5889,-0.3403
1781766217898,0.0259,-0.6853,-0.6146,0.6848,0.3641,-0.3812
1781766217937,-0.3413,-1.9561,0.2764,0.1466,0.2114,-0.1607
1781766217978,-0.4234,-0.7795,-1.4192,-0.1533,-0.1949,0.1607
1781766218017,0.3158,0.1888,0.7892,-0.1319,0.3073,0.0501
1781766218057,-0.2321,0.2533,1.8545,0.0177,0.3897,-0.0745
1781766218097,-0.2522,0.4984,1.0658,0.0195,0.1784,0.0092
1781766218137,0.6931,-0.3802,0.2702,0.168,0.0128,0.1454
1781766218178,0.7165,0.1781,0.1275,0.0397,0.1191,0.0128
1781766218217,-0.0117,-0.5762,0.2264,-0.1203,0.0996,-0.0385
1781766218256,-0.1888,0.5257,0.7617,0.0104,-0.193,0.0348
1781766218297,-0.1888,0.5257,0.7617,0.0257,-0.1277,0.044
1781766218337,-0.0764,-0.698,0.2616,0.0177,-0.0562,0.0031
1781766218377,0.224,0.2374,0.2939,-0.1038,-0.1222,-0.0415
1781766218417,-0.366,-0.5802,-0.1705,-0.1503,-0.19,0.058
1781766218458,0.4245,-0.6464,0.2144,-0.0929,-0.3201,0.0006
1781766218497,-0.577,0.9016,0.066,-0.2847,-0.1454,-0.0299
1781766218537,-1.0943,-0.5373,-0.3609,-0.3439,-0.292,0.0935
1781766218577,-0.4894,0.9932,0.6353,-0.3366,-0.2914,0.0721
1781766218617,-0.4894,0.9932,0.6353,-0.4655,-0.0159,0.0507
1781766218657,-0.5154,-0.8859,-3.29,-1.5357,-0.2853,0.4685
1781766218697,1.716,3.5585,1.6526,-2.1093,-0.6005,0.9927
1781766218737,1.2554,3.6729,0.7063,-1.5327,0.1753,0.0599
1781766218777,1.2554,3.6729,0.7063,-1.7703,0.0428,-0.0409
1781766218817,-4.401,-3.3459,2.629,-1.5724,0.2902,0.5131
1781766218858,-0.1516,3.01,-0.509,-1.653,-0.2297,0.7153
1781766218898,2.1589,-3.5541,1.5348,-1.4612,-0.3268,0.8076
1781766218937,2.2288,-0.7957,-1.2097,-1.4135,-0.6652,0.5443
1781766218977,2.2288,-0.7957,-1.2097,-1.6096,-0.5681,0.3592
1781766219017,-2.6825,-1.6295,-0.6418,-1.6921,0.1197,0.1185
1781766219057,0.5771,2.0746,0.6701,-1.6695,0.2095,0.1491
1781766219096,-0.9652,0.4763,0.0293,-1.5204,-0.1008,0.2676
1781766219137,-0.9652,0.4763,0.0293,-1.5828,-0.1179,0.3848
1781766219176,-1.0284,1.4963,-0.6036,-1.5278,-0.0959,0.1289
1781766219217,-1.0767,-0.7148,-1.12,-1.5748,0.0935,0.1998
1781766219256,1.3614,0.2423,-0.0783,-1.5449,0.1417,0.1619
1781766219297,1.3614,0.2423,-0.0783,-1.5229,-0.099,0.0959
1781766219337,0.1239,-0.2606,-0.7875,-1.2932,-0.1924,0.0825
1781766219376,-0.2408,0.0563,-0.9794,-1.2376,0.0263,0.0568
1781766219416,-0.3661,0.0545,-1.1266,-0.9945,-0.0409,0.0617
1781766219457,-0.3661,0.0545,-1.1266,-0.8375,-0.0434,0.1057
1781766219496,-0.1289,0.1166,-1.4152,-0.5119,0.0507,0.1179
1781766219536,0.1482,-0.5567,-1.9932,-0.2871,-0.0122,0.1405
1781766219577,0.1482,-0.5567,-1.9932,-0.1814,-0.0153,0.1118
1781766219616,-0.1607,-0.4535,-2.0275,0.1991,0.044,0.0
1781766219656,0.1615,0.1464,-1.5277,0.3903,0.2327,0.0067
1781766219696,0.2036,0.3203,-1.0189,0.6903,0.1912,-0.0654
1781766219736,-0.2062,0.2784,-0.6878,0.989,0.1429,-0.0605
1781766219777,-0.2435,-0.2399,-0.8823,1.2242,0.1081,-0.0733
1781766219816,-0.0887,-0.0078,-0.0988,1.4319,0.0757,-0.1301
1781766219857,-0.4971,-0.3326,-0.8648,1.6579,-0.1851,-0.1264
1781766219896,-0.3901,-0.4895,0.1022,1.7,-0.2376,-0.1063
1781766219936,-0.3107,0.1604,0.0581,1.7507,-0.248,-0.1741
1781766219977,0.2069,-0.1971,0.1292,1.7709,-0.2517,-0.1863
1781766220016,0.1383,-0.2146,0.6178,1.7507,-0.1729,-0.2889
1781766220056,-0.4041,0.2526,0.6186,1.7123,-0.0776,-0.3891
1781766220097,-0.4041,0.2526,0.6186,1.6872,0.0684,-0.3983
1781766220136,0.7733,-0.1474,0.6789,1.595,0.2492,-0.5418
1781766220176,-0.0558,0.4979,0.7933,1.5479,0.3073,-0.6041
1781766220217,-0.0558,0.4979,0.7933,1.5864,0.3213,-0.5632
1781766220257,-0.6262,0.2004,0.6008,1.876,0.0874,-0.4313
1781766220296,-2.3318,-1.9997,0.3412,1.8631,0.1552,-0.3415
1781766220336,1.1389,-1.4795,0.5904,1.5669,0.7685,-0.0214
1781766220377,3.8863,2.1115,1.5475,1.347,0.6341,-0.4563
1781766220417,1.8399,4.6663,2.2304,1.0745,0.0538,-0.9456
1781766220457,1.8399,4.6663,2.2304,1.1643,-0.1717,-0.9908
1781766220497,-2.0107,2.7439,2.5762,1.2425,-0.1252,-0.5388
1781766220537,0.9756,4.1093,2.4781,1.1161,-0.0843,-0.1319
1781766220577,4.6304,-16.5808,-2.841,1.2712,-0.1246,-0.6976
1781766220616,0.0433,0.7324,-2.9851,-0.2657,-0.4001,-0.069
1781766220657,-0.1264,1.2797,3.5975,-0.6561,-0.0996,-0.0202
1781766220697,-0.0881,3.8058,1.6208,0.0513,-0.2523,-0.0635
1781766220736,-2.3766,-1.236,-2.3385,0.4575,-0.2065,0.1399
1781766220777,1.1399,-1.891,-2.0786,-0.1118,0.3085,0.1155
1781766220818,0.6205,-0.1401,1.4251,-0.3073,0.4166,0.1008
1781766220857,1.539,1.271,1.7506,0.0159,-0.4753,0.0342
1781766220897,-0.3708,-0.4631,-0.456,0.0531,-0.1888,-0.0336
1781766220937,-0.7877,-0.7369,-0.6429,-0.0428,0.4105,0.044
1781766220977,0.5671,0.7918,0.8137,-0.047,0.1833,0.0538
1781766221017,0.5671,0.7918,0.8137,-0.069,0.0421,0.066
1781766221057,0.7286,-0.4862,0.4151,0.0354,0.0391,0.0544
1781766221097,0.0663,-0.017,0.2846,-0.0843,0.0727,0.0189
1781766221137,0.3036,0.1241,0.7381,0.0177,0.1264,0.011
1781766221176,0.0053,0.2633,0.2694,0.066,0.0654,0.0299
1781766221216,0.2912,-0.146,-0.0775,0.1167,-0.0079,0.0067
1781766221257,-0.2094,-0.0996,-0.2235,0.0397,-0.0024,0.0104
1781766221297,-0.2094,-0.0996,-0.2235,0.0116,0.0232,0.0037
1781766221336,-0.6333,0.0602,0.1717,0.0018,0.0599,0.0421
1781766221377,-0.2189,-0.3483,-0.0073,-0.0049,0.2156,0.0379
1781766221416,-0.0295,-0.1379,-0.2531,-0.1148,0.325,0.066
1781766221457,0.5531,-0.4739,0.0581,-0.1826,0.2279,0.091
1781766221497,0.4832,-0.0487,0.1069,-0.3421,-0.0281,0.0971
1781766221537,0.7251,-0.72,-0.62,-0.5235,-0.1979,0.0886
1781766221577,-0.8262,0.0267,0.1215,-0.7165,-0.4972,0.1918
1781766221617,-0.5729,1.0796,-0.1294,-1.0959,-0.606,0.2694
1781766221657,-1.438,0.9269,-0.8636,-1.8607,-0.5907,0.7917
1781766221697,0.382,-0.0984,2.1004,-1.4594,0.4459,0.945
1781766221737,0.6181,1.886,1.9392,-1.5009,0.6023,0.2657
1781766221777,2.3819,-0.282,-0.2316,-1.4245,0.1014,0.0018
1781766221817,2.3819,-0.282,-0.2316,-1.5644,-0.193,0.336
1781766221857,1.331,3.4453,2.06,-1.6041,-0.4942,0.4862
1781766221897,0.3892,0.0244,-0.5605,-1.2449,-1.0067,0.5687
1781766221936,-2.8397,-2.015,0.334,-1.4783,-0.2486,0.5681
1781766221977,1.2296,1.0711,-0.2321,-1.6603,0.2425,0.3635
1781766222016,0.2722,1.4444,0.0286,-1.5809,0.0299,0.2272
1781766222057,1.0222,0.49,-0.1752,-1.6982,0.0605,0.2101
1781766222096,-0.2559,0.604,-0.5243,-1.6426,-0.2132,0.1014
1781766222136,-1.7472,0.9068,-0.4883,-1.6255,0.1264,0.0458
1781766222176,0.1258,0.509,-0.4515,-1.6787,0.3164,0.0947
1781766222216,0.1601,0.3559,-0.4699,-1.6145,0.1069,-0.058
1781766222256,-0.3777,0.1203,-0.516,-1.3341,-0.121,0.0562
1781766222297,0.6178,0.1858,-0.4758,-1.2675,-0.1155,0.1179
1781766222337,-0.0257,0.1349,-0.9372,-1.2462,-0.1619,0.0684
1781766222376,-0.3112,-0.0805,-0.9554,-1.127,-0.099,-0.0538
1781766222416,0.1424,0.2799,-0.687,-1.0708,0.069,-0.0733
1781766222456,-0.1574,0.6866,-0.4139,-0.9511,0.0751,-0.1484
1781766222496,-0.2093,0.5122,-0.3151,-0.7898,0.0043,-0.0886
1781766222536,-0.4656,0.6651,-0.6447,-0.6738,0.0189,-0.0324
1781766222577,-0.3806,0.575,-0.6668,-0.5082,0.025,0.0024
1781766222616,0.1328,0.4473,-0.6269,-0.3769,-0.0024,0.025
1781766222656,0.0862,0.3896,-1.6166,-0.1881,-0.0464,-0.0318
1781766222697,-1.0108,-0.1682,-1.1819,-0.0238,0.088,-0.0214
1781766222736,0.028,0.0974,-1.4601,0.1906,0.1961,0.0354
1781766222776,-0.1038,0.3439,-1.3147,0.38,0.1509,0.0489
1781766222816,-0.1866,0.3192,-1.2361,0.6115,0.2608,0.0635
1781766222858,0.2288,0.6403,-1.0364,0.8259,0.3048,-0.0153
1781766222896,-0.1303,0.3809,-0.873,1.055,0.2498,-0.0806
1781766222937,-0.6972,-0.213,0.0142,1.2785,0.3268,-0.0696
1781766222976,-1.1513,-0.1193,-0.5483,1.5443,0.2077,-0.0159
1781766223016,-0.0401,-0.0952,0.0695,1.6127,0.0672,0.1197
1781766223057,0.4734,-0.3068,0.1175,1.6866,-0.2181,0.0861
1781766223096,-0.0278,-0.1827,-0.1068,1.6005,-0.3213,-0.0568
1781766223136,-0.402,-0.2077,-0.0119,1.6237,-0.2615,-0.0672
1781766223176,-0.2736,-0.1186,0.1739,1.573,-0.1167,-0.1283
1781766223217,-0.1389,0.3451,0.4664,1.576,-0.1002,-0.2077
1781766223257,-0.1771,0.0629,0.1859,1.5241,0.0476,-0.281
1781766223298,-0.0482,-0.7873,0.9038,1.5675,0.1148,-0.1961
1781766223337,-0.0346,-0.0098,0.6568,1.5498,0.2498,-0.3268
1781766223376,0.6512,-0.1122,1.3267,1.5156,0.3433,-0.3305
1781766223416,1.0969,0.1161,1.0215,1.5266,0.2615,-0.3323
1781766223457,0.6818,0.3624,1.0457,1.4771,0.0867,-0.4539
1781766223496,-0.0989,0.6604,1.1547,1.4386,0.0354,-0.4765
1781766223536,0.2819,0.0867,0.8759,1.5327,0.0806,-0.2676
1781766223578,-0.262,-0.3386,0.7161,1.4923,0.2767,-0.3128
1781766223617,-1.3388,-0.0428,1.0654,1.3677,0.7178,-0.3195
1781766223657,-0.6021,0.9269,1.0859,1.3354,0.8143,-0.168
1781766223697,-0.2707,1.5519,1.3084,1.1484,0.5571,0.011
1781766223736,1.3251,0.9986,-0.1579,0.821,0.4191,0.0244
1781766223777,3.8244,-0.886,-0.5793,0.8674,0.3971,-0.1814
1781766223816,-0.8478,0.0388,-0.1874,0.6176,0.201,-0.4698
1781766223856,-1.3351,-0.836,0.4452,0.2004,0.2236,-0.193
1781766223896,0.1931,-2.1819,0.1294,0.0788,0.1619,0.1436
1781766223937,0.0462,0.6086,-0.7874,-0.0825,-0.2779,0.3335
1781766223977,0.0462,0.6086,-0.7874,-0.1106,-0.2889,0.2468
1781766224017,-0.0446,-0.0345,1.3144,0.0446,-0.3653,-0.135
1781766224056,-0.9531,0.2717,0.7713,0.1277,-0.1717,-0.0971
